timestamp,ax,ay,az,gx,gy,gz,label
113,0.02,1.03,-0.17,-1.10,-3.49,-5.49,0
116,0.02,1.03,-0.17,-1.10,-3.49,-5.49,0
119,0.02,1.03,-0.17,-1.10,-3.49,-5.49,0
121,0.02,1.03,-0.16,-0.82,-3.24,-5.53,0
124,0.02,1.03,-0.16,-0.82,-3.24,-5.53,0
127,0.02,1.03,-0.16,-0.82,-3.24,-5.53,0
130,0.02,1.03,-0.16,-0.82,-3.24,-5.53,0
143,0.03,1.04,-0.16,-0.82,-2.67,-6.20,0
145,0.03,1.04,-0.16,-0.82,-2.67,-6.20,0
148,0.03,1.04,-0.16,-0.82,-2.67,-6.20,0
151,0.03,1.04,-0.16,-0.98,-2.71,-6.53,0
154,0.03,1.04,-0.16,-0.98,-2.71,-6.53,0
157,0.03,1.04,-0.16,-0.98,-2.71,-6.53,0
159,0.03,1.04,-0.16,-0.98,-2.71,-6.53,0
162,0.03,1.04,-0.16,-1.05,-2.95,-6.82,0
165,0.03,1.04,-0.16,-1.05,-2.95,-6.82,0
168,0.03,1.04,-0.16,-1.05,-2.95,-6.82,0
170,0.03,1.04,-0.16,-1.05,-2.95,-6.82,0
173,0.04,1.04,-0.16,-1.05,-3.12,-6.95,0
186,0.04,1.04,-0.16,-0.94,-2.90,-7.02,0
189,0.04,1.04,-0.16,-0.94,-2.90,-7.02,0
192,0.04,1.04,-0.16,-0.73,-2.37,-7.17,0
194,0.04,1.04,-0.16,-0.73,-2.37,-7.17,0
197,0.04,1.04,-0.16,-0.73,-2.37,-7.17,0
200,0.04,1.04,-0.16,-0.73,-2.37,-7.17,0
203,0.04,1.04,-0.16,-0.49,-1.59,-7.18,0
205,0.04,1.04,-0.16,-0.49,-1.59,-7.18,0
208,0.04,1.04,-0.16,-0.49,-1.59,-7.18,0
211,0.04,1.04,-0.16,-0.24,-0.97,-7.35,0
214,0.05,1.04,-0.15,-0.24,-0.97,-7.35,0
216,0.05,1.04,-0.15,-0.24,-0.97,-7.35,0
229,0.05,1.04,-0.15,-0.43,-0.44,-7.57,0
232,0.06,1.04,-0.15,-0.63,0.15,-7.79,0
235,0.06,1.04,-0.15,-0.63,0.15,-7.79,0
238,0.06,1.04,-0.15,-0.63,0.15,-7.79,0
240,0.06,1.04,-0.15,-0.63,0.15,-7.79,0
243,0.07,1.04,-0.15,-0.81,0.98,-7.95,0
246,0.07,1.04,-0.15,-0.81,0.98,-7.95,0
249,0.07,1.04,-0.15,-0.81,0.98,-7.95,0
251,0.07,1.04,-0.15,-0.88,2.21,-7.96,0
254,0.07,1.05,-0.16,-0.88,2.21,-7.96,0
257,0.07,1.05,-0.16,-0.88,2.21,-7.96,0
260,0.07,1.05,-0.16,-0.88,2.21,-7.96,0
262,0.07,1.04,-0.16,-0.69,3.33,-7.71,0
275,0.07,1.04,-0.16,-0.34,4.43,-7.51,0
278,0.07,1.04,-0.16,-0.34,4.43,-7.51,0
281,0.07,1.04,-0.16,-0.15,5.30,-7.18,0
283,0.06,1.03,-0.16,-0.15,5.30,-7.18,0
286,0.06,1.03,-0.16,-0.15,5.30,-7.18,0
289,0.06,1.03,-0.16,-0.15,5.30,-7.18,0
292,0.05,1.04,-0.16,-0.10,5.64,-6.95,0
294,0.05,1.04,-0.16,-0.10,5.64,-6.95,0
297,0.05,1.04,-0.16,-0.10,5.64,-6.95,0
300,0.05,1.04,-0.16,-0.10,5.64,-6.95,0
303,0.04,1.04,-0.15,-0.04,5.74,-6.83,0
305,0.04,1.04,-0.15,-0.04,5.74,-6.83,0
308,0.04,1.04,-0.15,-0.04,5.74,-6.83,0
321,0.04,1.04,-0.15,-0.68,5.25,-7.44,0
324,0.04,1.05,-0.15,-0.68,5.25,-7.44,0
327,0.04,1.05,-0.15,-0.68,5.25,-7.44,0
329,0.04,1.05,-0.15,-0.68,5.25,-7.44,0
332,0.04,1.04,-0.15,-1.15,4.82,-7.73,0
335,0.04,1.04,-0.15,-1.15,4.82,-7.73,0
338,0.04,1.04,-0.15,-1.15,4.82,-7.73,0
340,0.04,1.04,-0.15,-1.15,4.82,-7.73,0
343,0.04,1.04,-0.16,-1.53,4.18,-7.78,0
346,0.04,1.04,-0.16,-1.53,4.18,-7.78,0
349,0.04,1.04,-0.16,-1.53,4.18,-7.78,0
351,0.04,1.04,-0.16,-1.75,3.96,-7.55,0
354,0.05,1.04,-0.16,-1.75,3.96,-7.55,0
357,0.05,1.04,-0.16,-1.75,3.96,-7.55,0
370,0.04,1.04,-0.17,-1.52,4.29,-7.38,0
372,0.04,1.04,-0.17,-1.27,4.92,-7.20,0
375,0.04,1.04,-0.17,-1.27,4.92,-7.20,0
378,0.04,1.04,-0.17,-1.27,4.92,-7.20,0
381,0.04,1.04,-0.17,-1.00,5.24,-6.85,0
383,0.04,1.04,-0.16,-1.00,5.24,-6.85,0
386,0.04,1.04,-0.16,-1.00,5.24,-6.85,0
389,0.04,1.04,-0.16,-1.00,5.24,-6.85,0
392,0.03,1.04,-0.17,-0.84,5.29,-6.53,0
394,0.03,1.04,-0.17,-0.84,5.29,-6.53,0
397,0.03,1.04,-0.17,-0.84,5.29,-6.53,0
400,0.03,1.04,-0.17,-0.84,5.29,-6.53,0
403,0.03,1.04,-0.17,-0.86,5.15,-6.39,0
416,0.02,1.04,-0.18,-0.88,5.32,-6.21,0
418,0.02,1.04,-0.18,-0.88,5.32,-6.21,0
421,0.02,1.04,-0.18,-0.32,6.05,-6.08,0
424,0.02,1.04,-0.19,-0.32,6.05,-6.08,0
427,0.02,1.04,-0.19,-0.32,6.05,-6.08,0
429,0.02,1.04,-0.19,-0.32,6.05,-6.08,0
432,0.02,1.04,-0.19,0.66,7.53,-6.02,0
435,0.02,1.04,-0.19,0.66,7.53,-6.02,0
437,0.02,1.04,-0.19,0.66,7.53,-6.02,0
440,0.02,1.04,-0.19,0.66,7.53,-6.02,0
443,0.02,1.04,-0.18,1.76,9.20,-6.06,0
446,0.02,1.04,-0.18,1.76,9.20,-6.06,0
448,0.02,1.04,-0.18,1.76,9.20,-6.06,0
451,0.02,1.04,-0.18,2.42,10.23,-6.27,0
464,0.04,1.04,-0.17,2.31,11.06,-6.40,0
467,0.04,1.04,-0.17,2.31,11.06,-6.40,0
469,0.04,1.04,-0.17,2.31,11.06,-6.40,0
472,0.04,1.04,-0.18,1.89,11.98,-6.10,0
475,0.04,1.04,-0.18,1.89,11.98,-6.10,0
478,0.04,1.04,-0.18,1.89,11.98,-6.10,0
480,0.04,1.04,-0.18,1.89,11.98,-6.10,0
483,0.03,1.05,-0.18,1.70,12.13,-5.63,0
486,0.03,1.05,-0.18,1.70,12.13,-5.63,0
489,0.03,1.05,-0.18,1.70,12.13,-5.63,0
491,0.03,1.05,-0.18,1.77,11.07,-5.53,0
494,0.03,1.04,-0.17,1.77,11.07,-5.53,0
497,0.03,1.04,-0.17,1.77,11.07,-5.53,0
510,0.04,1.04,-0.16,1.73,9.79,-5.62,0
512,0.04,1.03,-0.15,1.37,8.70,-5.65,0
515,0.04,1.03,-0.15,1.37,8.70,-5.65,0
518,0.04,1.03,-0.15,1.37,8.70,-5.65,0
521,0.04,1.03,-0.15,1.37,8.70,-5.65,0
523,0.04,1.03,-0.15,0.85,8.27,-5.47,0
526,0.04,1.03,-0.15,0.85,8.27,-5.47,0
529,0.04,1.03,-0.15,0.85,8.27,-5.47,0
531,0.04,1.03,-0.15,0.38,8.40,-5.23,0
534,0.04,1.04,-0.15,0.38,8.40,-5.23,0
537,0.04,1.04,-0.15,0.38,8.40,-5.23,0
540,0.04,1.04,-0.15,0.38,8.40,-5.23,0
542,0.04,1.04,-0.16,0.30,8.12,-5.15,0
545,0.04,1.04,-0.16,0.30,8.12,-5.15,0
552,0.04,1.04,-0.16,0.34,7.31,-4.95,0
562,0.04,1.04,-0.16,0.05,6.17,-4.71,0
572,0.04,1.04,-0.16,-0.48,5.13,-4.48,0
582,0.04,1.04,-0.15,-1.14,4.89,-3.93,0
592,0.05,1.05,-0.15,-1.42,5.19,-3.33,0
602,0.05,1.05,-0.15,-1.15,5.04,-2.68,0
612,0.05,1.05,-0.14,-0.99,4.27,-2.13,0
622,0.04,1.04,-0.13,-1.42,3.31,-2.05,0
632,0.04,1.03,-0.12,-2.45,2.18,-2.02,0
642,0.04,1.03,-0.12,-3.71,1.03,-2.09,0
652,0.04,1.03,-0.13,-4.68,0.50,-2.15,0
662,0.05,1.04,-0.14,-5.20,0.79,-2.25,0
672,0.05,1.05,-0.15,-5.06,1.72,-2.07,0
682,0.05,1.05,-0.15,-4.62,2.53,-2.00,0
692,0.06,1.04,-0.15,-4.11,3.38,-2.11,0
702,0.05,1.03,-0.15,-3.60,4.00,-2.15,0
712,0.05,1.03,-0.15,-3.11,4.08,-2.08,0
722,0.05,1.02,-0.15,-2.60,3.67,-1.89,0
732,0.04,1.02,-0.15,-2.06,2.76,-1.91,0
742,0.03,1.02,-0.16,-1.93,1.58,-1.98,0
752,0.03,1.03,-0.16,-1.94,0.53,-1.95,0
762,0.02,1.04,-0.17,-1.93,-0.68,-2.36,0
772,0.02,1.05,-0.17,-1.79,-1.27,-2.99,0
782,0.02,1.04,-0.17,-1.56,-0.57,-3.53,0
792,0.02,1.03,-0.17,-1.30,0.78,-4.10,0
802,0.02,1.03,-0.16,-0.78,2.05,-4.48,0
812,0.03,1.04,-0.16,0.08,2.66,-4.46,0
822,0.04,1.04,-0.15,1.09,2.52,-4.05,0
832,0.04,1.04,-0.14,1.93,1.81,-3.36,0
842,0.04,1.04,-0.14,2.19,0.38,-2.91,0
852,0.03,1.03,-0.13,1.96,-1.45,-2.57,0
862,0.03,1.03,-0.13,1.37,-2.95,-2.38,0
872,0.02,1.03,-0.13,0.74,-3.81,-2.47,0
882,0.01,1.03,-0.14,0.37,-4.61,-3.00,0
892,0.02,1.04,-0.15,0.40,-5.11,-3.65,0
902,0.02,1.06,-0.16,0.88,-5.72,-4.38,0
912,0.02,1.05,-0.18,1.66,-6.77,-4.79,0
922,0.02,1.02,-0.19,2.44,-6.73,-4.78,0
932,0.03,1.02,-0.19,2.27,-8.40,-4.57,0
942,0.03,1.01,-0.20,4.38,-5.63,-5.31,0
952,0.08,1.00,-0.23,8.47,-0.25,-5.84,0
962,0.10,0.99,-0.19,-0.56,-20.03,-8.21,0
972,0.07,0.93,-0.05,-35.57,-97.61,-10.45,0
982,0.24,0.89,-0.24,-38.92,-132.47,-7.20,0
992,0.35,0.93,-0.54,-4.23,-102.63,-2.51,0
1002,0.34,0.96,-0.53,26.21,-71.75,0.98,0
1012,0.31,1.06,-0.41,44.96,-44.03,5.13,0
1022,0.20,1.19,-0.29,56.18,-15.96,6.56,0
1032,0.00,1.26,-0.13,56.92,6.37,3.34,0
1042,-0.18,1.24,0.13,43.66,16.63,-2.40,0
1052,-0.27,1.14,0.29,22.95,18.71,-8.87,0
1062,-0.22,1.09,0.32,0.74,22.90,-12.95,0
1072,-0.09,1.07,0.25,-18.34,30.05,-14.10,0
1082,-0.03,1.05,0.10,-30.12,32.56,-15.28,0
1092,-0.00,1.06,-0.06,-34.31,26.37,-16.18,0
1102,0.05,1.06,-0.18,-33.93,14.15,-14.30,0
1112,0.09,1.04,-0.27,-29.78,1.15,-11.28,0
1122,0.09,1.00,-0.35,-21.34,-11.24,-9.26,0
1132,0.10,1.00,-0.40,-8.13,-15.21,-7.44,0
1142,0.12,1.00,-0.42,6.76,-10.20,-4.65,0
1152,0.12,0.99,-0.36,18.97,-0.41,-1.38,0
1162,0.10,0.98,-0.29,26.52,5.92,2.86,0
1172,0.06,0.99,-0.20,26.69,6.90,6.04,0
1182,0.02,1.01,-0.13,21.05,2.63,6.10,0
1192,0.02,1.02,-0.10,12.91,-5.83,4.24,0
1202,0.04,1.02,-0.09,4.99,-15.31,0.89,0
1212,0.08,1.04,-0.10,-1.01,-26.21,-1.97,0
1222,0.12,1.05,-0.11,-5.54,-39.47,-1.84,0
1232,0.11,1.05,-0.14,-8.73,-50.62,-0.09,0
1242,0.08,1.03,-0.16,-11.08,-57.93,1.11,0
1252,0.03,1.03,-0.19,-11.91,-64.21,0.42,0
1262,-0.00,1.05,-0.22,-11.97,-70.17,-2.15,0
1272,0.00,1.05,-0.23,-12.11,-74.62,-4.60,0
1282,0.05,1.02,-0.24,-13.36,-84.01,-4.40,0
1292,0.05,1.04,-0.24,-14.84,-99.10,-4.38,0
1302,0.07,1.06,-0.28,-8.72,-102.05,-6.28,0
1312,0.13,1.08,-0.29,4.88,-78.63,-7.88,0
1322,0.14,1.06,-0.22,14.65,-45.31,-8.08,0
1332,0.13,1.01,-0.12,17.01,-19.53,-6.33,0
1342,0.07,0.99,-0.05,13.28,-8.61,-4.83,0
1352,-0.01,1.00,-0.01,3.41,-19.30,-4.87,0
1362,-0.06,1.05,-0.02,-7.72,-39.89,-7.61,0
1372,-0.02,1.08,-0.08,-11.67,-49.56,-10.15,0
1382,0.04,1.07,-0.15,-9.37,-49.34,-10.69,0
1392,0.07,1.06,-0.17,-7.25,-44.85,-11.34,0
1402,0.09,1.05,-0.16,-7.69,-42.49,-12.37,0
1412,0.10,1.03,-0.18,-9.51,-47.75,-12.92,0
1422,0.11,1.03,-0.20,-11.44,-57.03,-13.95,0
1432,0.13,1.04,-0.21,-12.47,-62.02,-14.58,0
1442,0.16,1.05,-0.21,-13.69,-61.81,-14.50,0
1452,0.15,1.04,-0.22,-12.14,-59.02,-15.73,0
1462,0.18,1.01,-0.25,-6.73,-54.50,-15.92,0
1472,0.21,1.00,-0.25,0.05,-48.12,-14.13,0
1482,0.22,1.00,-0.23,5.62,-42.09,-11.69,0
1492,0.20,1.01,-0.20,8.38,-39.50,-10.09,0
1502,0.16,1.02,-0.19,2.24,-52.27,-11.60,0
1512,0.08,1.03,-0.08,-10.97,-86.14,-16.53,0
1522,0.16,1.04,-0.24,0.44,-88.50,-19.56,0
1532,0.22,1.00,-0.20,8.75,-78.18,-20.41,0
1542,0.30,0.97,-0.15,13.44,-59.82,-17.49,0
1552,0.33,0.97,-0.13,17.70,-39.27,-13.87,0
1562,0.29,0.99,-0.14,24.21,-21.76,-11.07,0
1572,0.27,1.03,-0.17,36.59,-0.82,-4.94,0
1582,0.11,1.01,-0.10,39.50,11.88,-4.58,0
1592,0.02,0.99,-0.04,35.69,14.24,-8.13,0
1602,-0.00,1.05,-0.06,32.83,10.80,-11.60,0
1612,-0.05,1.05,-0.04,28.26,0.53,-15.44,0
1622,-0.06,1.04,-0.03,23.90,-7.25,-18.41,0
1632,-0.05,1.03,-0.02,19.73,-11.11,-22.41,0
1642,-0.03,1.01,-0.01,15.18,-13.22,-26.41,0
1652,0.04,1.02,-0.02,12.51,-8.78,-28.79,0
1662,0.11,1.03,-0.04,10.11,-1.47,-30.44,0
1672,0.15,1.04,-0.06,6.89,3.43,-31.70,0
1682,0.16,1.04,-0.10,3.56,4.18,-33.81,0
1692,0.19,1.02,-0.12,-0.08,-0.33,-36.20,0
1702,0.24,0.98,-0.14,-4.40,-9.85,-37.08,0
1712,0.28,0.98,-0.18,-4.40,-9.85,-37.08,0
1722,0.31,1.00,-0.21,-7.96,-21.96,-36.23,0
1732,0.32,1.00,-0.25,-10.41,-36.84,-34.56,0
1742,0.32,0.96,-0.26,-11.99,-53.92,-32.75,0
1752,0.34,0.93,-0.29,-13.13,-70.76,-30.30,0
1762,0.35,0.94,-0.29,-9.31,-78.98,-25.76,0
1772,0.39,0.99,-0.24,-2.18,-76.48,-20.26,0
1782,0.42,1.07,-0.18,4.64,-65.69,-13.47,0
1792,0.37,1.13,-0.11,9.63,-48.82,-6.29,0
1802,0.31,1.17,-0.06,11.72,-32.89,-0.42,0
1812,0.26,1.19,-0.02,11.56,-20.48,4.46,0
1822,0.24,1.24,0.03,9.69,-11.22,8.47,0
1832,0.23,1.37,0.07,5.76,-5.18,12.28,0
1842,0.28,1.47,0.11,0.62,-1.23,15.50,0
1852,0.33,1.43,0.16,-5.34,-2.78,21.44,0
1862,0.40,1.35,0.20,-11.47,-13.79,28.64,0
1872,0.47,1.29,0.34,-16.18,-27.73,36.21,0
1882,0.56,1.23,0.61,-26.98,-46.70,45.71,0
1892,0.67,1.18,0.77,-51.06,-71.40,59.72,0
1902,0.64,1.15,0.66,-78.69,-78.67,78.67,0
1912,0.44,1.15,0.43,-97.47,-64.15,95.95,0
1922,0.13,1.18,0.22,-106.24,-43.63,105.34,0
1932,-0.09,1.27,0.05,-109.07,-28.55,107.84,0
1942,-0.26,1.41,-0.10,-107.40,-20.93,109.03,0
1952,-0.47,1.48,-0.24,-102.02,-27.64,107.08,0
1962,-0.65,1.42,-0.30,-94.52,-47.78,97.53,0
1972,-0.72,1.29,-0.29,-87.94,-69.39,79.71,0
1982,-0.65,1.26,-0.33,-83.42,-100.01,61.25,0
1992,-0.53,1.24,-0.38,-75.63,-132.34,51.74,0
2002,-0.47,1.17,-0.39,-63.96,-143.16,49.16,0
2012,-0.43,1.11,-0.42,-51.22,-135.45,47.34,0
2022,-0.35,1.09,-0.44,-38.16,-117.22,43.44,0
2032,-0.20,1.09,-0.46,-24.05,-93.53,38.23,0
2042,-0.06,1.08,-0.47,-7.91,-66.71,32.47,0
2052,0.09,1.10,-0.44,8.84,-40.24,27.05,0
2062,0.20,1.04,-0.30,24.56,-21.47,25.24,0
2072,0.30,0.97,-0.08,30.49,-25.17,25.78,0
2082,0.31,1.00,0.11,26.71,-42.30,30.00,0
2092,0.21,0.95,0.22,15.11,-54.05,34.83,0
2102,0.14,0.93,0.13,-0.79,-54.73,35.61,0
2112,0.11,0.93,0.03,-9.40,-38.50,33.22,0
2122,0.06,0.91,-0.05,-11.91,-14.35,29.08,0
2132,0.00,0.90,-0.10,-11.51,9.08,22.95,0
2142,-0.05,0.89,-0.13,-9.67,27.24,15.31,0
2152,-0.06,0.88,-0.16,-8.25,31.29,8.66,0
2162,-0.05,0.88,-0.16,-6.67,26.17,3.32,0
2172,-0.01,0.88,-0.16,-4.00,20.84,-1.56,0
2182,0.06,0.85,-0.14,-0.80,19.56,-6.55,0
2192,0.14,0.84,-0.08,1.25,17.89,-9.84,0
2202,0.17,0.87,-0.01,1.22,12.16,-10.21,0
2212,0.18,0.92,0.06,-0.49,8.60,-10.74,0
2222,0.16,0.94,0.11,-2.69,11.25,-12.77,0
2232,0.17,0.95,0.15,-5.73,15.87,-16.66,0
2242,0.19,0.94,0.17,-9.24,20.70,-20.73,0
2252,0.19,0.93,0.17,-13.56,23.63,-24.05,0
2262,0.20,0.94,0.15,-18.38,25.37,-26.72,0
2272,0.23,0.94,0.14,-22.31,32.85,-29.11,0
2282,0.22,0.94,0.11,-25.44,41.15,-30.54,0
2292,0.22,0.93,0.07,-26.43,45.02,-31.72,0
2302,0.26,0.94,0.04,-24.85,46.63,-32.14,0
2312,0.31,0.95,0.00,-20.41,41.04,-31.73,0
2322,0.39,0.95,0.02,-13.11,27.04,-30.52,0
2332,0.52,0.96,0.09,-5.24,11.92,-27.54,0
2342,0.61,0.99,0.12,1.66,0.13,-22.60,0
2352,0.69,1.00,0.13,7.99,-5.92,-17.37,0
2362,0.78,1.01,0.13,13.69,-5.51,-10.98,0
2372,0.77,1.04,0.12,18.10,-3.45,-4.92,0
2382,0.67,1.06,0.09,21.75,-3.42,-2.04,0
2392,0.54,1.08,0.05,24.29,-7.53,-4.02,0
2402,0.45,1.09,-0.01,25.45,-11.29,-10.61,0
2412,0.42,1.05,-0.05,26.03,-16.59,-18.72,0
2422,0.39,1.03,-0.06,26.63,-29.82,-25.05,0
2432,0.38,1.08,-0.04,28.79,-44.15,-28.57,0
2442,0.37,1.26,0.07,30.60,-45.81,-27.67,0
2452,0.15,1.48,0.42,23.09,-36.49,-20.73,0
2462,0.06,1.49,0.58,2.08,-24.34,-18.22,0
2472,0.24,1.37,0.27,-16.97,-3.37,-19.08,0
2482,0.26,1.31,-0.02,-19.03,24.16,-14.48,0
2492,0.08,1.19,-0.23,-9.88,40.38,-8.15,0
2502,-0.05,1.06,-0.35,2.92,37.63,-5.82,0
2512,-0.15,0.93,-0.41,19.98,31.99,-7.72,0
2522,-0.26,0.88,-0.35,42.32,31.79,-12.43,0
2532,-0.46,0.91,-0.22,59.46,36.08,-13.56,0
2542,-0.71,0.95,-0.17,62.48,35.31,-16.31,0
2552,-0.70,0.97,-0.19,54.45,23.58,-29.37,0
2562,-0.56,0.99,-0.22,41.83,13.45,-42.47,0
2572,-0.51,1.04,-0.23,29.33,8.04,-49.48,0
2582,-0.51,1.10,-0.26,19.73,9.74,-57.03,0
2592,-0.45,1.09,-0.26,17.29,15.96,-68.27,0
2602,-0.26,1.05,-0.21,20.89,15.40,-80.32,0
2612,-0.03,0.99,-0.14,27.38,10.48,-88.28,0
2622,0.23,0.98,0.07,32.31,8.27,-88.67,0
2632,0.40,1.01,0.20,29.36,10.63,-81.64,0
2642,0.42,1.02,0.11,22.12,15.73,-70.97,0
2652,0.38,0.98,-0.02,16.12,17.55,-59.92,0
2662,0.30,0.98,-0.09,11.93,16.54,-48.89,0
2672,0.21,1.00,-0.13,8.92,14.14,-39.18,0
2682,0.12,1.03,-0.15,4.95,9.82,-31.53,0
2692,0.05,1.05,-0.16,-0.18,6.17,-25.79,0
2702,-0.00,1.07,-0.18,-5.40,3.97,-21.67,0
2712,-0.04,1.06,-0.21,-9.50,3.50,-19.88,0
2722,-0.05,1.05,-0.25,-10.74,3.14,-21.52,0
2732,-0.01,1.06,-0.29,-8.55,2.30,-26.48,0
2742,0.05,1.06,-0.31,-2.75,0.34,-32.14,0
2752,0.12,1.04,-0.31,5.40,-2.18,-36.89,0
2762,0.17,1.02,-0.28,13.95,-2.63,-39.27,0
2772,0.19,1.02,-0.25,21.59,-3.04,-39.06,0
2782,0.18,1.03,-0.21,28.59,-2.44,-37.23,0
2792,0.16,1.04,-0.17,34.40,0.02,-34.92,0
2802,0.12,1.05,-0.13,37.86,1.63,-32.56,0
2812,0.11,1.05,-0.09,38.95,5.39,-31.97,0
2822,0.09,1.04,-0.05,37.61,11.37,-32.51,0
2832,0.09,1.03,-0.03,33.94,17.06,-34.16,0
2842,0.10,1.00,-0.02,29.13,21.63,-36.78,0
2852,0.14,0.98,-0.03,23.61,25.22,-38.89,0
2862,0.17,0.97,-0.05,18.64,30.21,-38.32,0
2872,0.16,0.96,-0.06,15.21,33.78,-35.24,0
2882,0.14,0.96,-0.05,12.22,31.99,-31.25,0
2892,0.12,0.97,-0.08,9.56,28.89,-26.74,0
2902,0.06,1.01,-0.11,8.67,26.10,-22.82,0
2912,0.00,1.02,-0.13,9.52,22.18,-20.88,0
2922,-0.04,1.00,-0.14,10.83,16.15,-21.04,0
2932,-0.05,0.99,-0.15,11.49,6.54,-22.16,0
2942,-0.05,0.98,-0.16,12.03,-2.53,-23.33,0
2952,-0.05,0.98,-0.17,12.61,-9.02,-23.86,0
2962,-0.05,0.99,-0.18,13.34,-13.82,-24.15,0
2972,-0.07,1.01,-0.18,14.60,-17.89,-23.98,0
2982,-0.09,1.03,-0.20,16.58,-20.90,-25.11,0
2992,-0.09,1.03,-0.19,19.40,-22.30,-27.27,0
3002,-0.08,1.03,-0.17,21.60,-22.82,-29.56,0
3012,-0.06,1.03,-0.16,22.71,-22.31,-32.34,0
3022,-0.02,1.05,-0.14,23.24,-19.70,-36.16,0
3032,0.04,1.08,-0.11,21.92,-16.90,-39.82,0
3042,0.08,1.10,-0.10,18.21,-15.27,-43.03,0
3052,0.13,1.11,-0.11,12.82,-16.24,-45.58,0
3062,0.16,1.12,-0.13,7.30,-19.48,-46.84,0
3072,0.20,1.10,-0.15,3.44,-19.82,-46.36,0
3082,0.22,1.10,-0.17,2.31,-15.37,-44.34,0
3092,0.26,1.09,-0.17,4.18,-5.44,-41.26,0
3102,0.28,1.10,-0.16,7.05,8.60,-37.47,0
3112,0.29,1.18,-0.15,9.92,25.20,-33.55,0
3122,0.28,1.29,-0.11,10.80,39.21,-29.13,0
3132,0.30,1.33,-0.09,5.21,45.89,-22.45,0
3142,0.30,1.40,-0.15,-0.45,50.57,-14.24,0
3152,0.30,1.40,-0.14,1.89,52.78,-6.99,0
3162,0.35,1.38,-0.05,6.27,51.60,0.59,0
3172,0.33,1.36,0.03,7.47,50.79,9.05,0
3182,0.32,1.30,0.08,7.08,46.01,14.98,0
3192,0.36,1.23,0.13,8.73,31.65,19.88,0
3202,0.40,1.12,0.22,12.07,5.60,26.60,0
3212,0.54,1.07,0.99,9.64,-54.22,37.25,0
3222,0.88,0.98,1.40,-29.76,-161.32,59.39,0
3232,0.73,0.95,0.87,-80.37,-169.56,91.70,0
3242,0.35,1.01,0.41,-108.90,-87.82,115.13,0
3252,0.14,1.11,0.16,-124.07,-25.69,127.70,0
3262,0.01,1.38,-0.03,-131.74,-4.53,136.34,0
3272,-0.16,1.50,-0.10,-132.28,-7.22,142.75,0
3282,-0.35,1.37,-0.15,-133.00,-23.61,144.28,0
3292,-0.45,1.36,-0.33,-134.64,-48.84,136.23,0
3302,-0.45,1.44,-0.50,-126.15,-80.63,124.40,0
3312,-0.43,1.46,-0.56,-109.31,-114.56,115.11,0
3322,-0.42,1.43,-0.55,-93.40,-137.90,105.47,0
3332,-0.37,1.38,-0.57,-82.37,-140.59,93.98,0
3342,-0.30,1.34,-0.75,-71.24,-130.13,84.03,0
3352,-0.23,1.28,-0.90,-48.37,-107.65,77.18,0
3362,-0.19,1.17,-0.93,-14.99,-74.56,69.46,0
3372,-0.12,1.08,-0.82,19.59,-49.67,59.83,0
3382,-0.09,1.04,-0.60,49.48,-49.85,51.69,0
3392,0.00,1.00,-0.32,71.66,-69.37,46.66,0
3402,0.04,0.96,0.02,82.78,-82.18,46.48,0
3412,-0.01,0.98,0.37,79.24,-76.21,45.82,0
3422,0.04,1.03,0.77,58.74,-57.22,41.89,0
3432,0.13,1.04,0.70,22.88,-26.53,38.79,0
3442,0.06,0.97,0.37,-5.86,29.28,34.28,0
3452,-0.03,0.91,0.07,-21.15,73.56,26.24,0
3462,-0.06,0.87,-0.10,-26.05,94.24,18.07,0
3472,-0.11,0.85,-0.20,-24.79,101.58,11.10,0
3482,-0.10,0.81,-0.26,-20.49,96.81,4.10,0
3492,-0.02,0.77,-0.29,-13.64,88.18,-1.16,0
3502,0.05,0.75,-0.30,-5.51,80.25,-2.70,0
3512,0.05,0.75,-0.25,2.76,71.80,-1.76,0
3522,0.01,0.81,-0.08,8.24,60.65,-2.65,0
3532,0.04,0.91,0.16,5.12,45.08,-6.63,0
3542,0.10,0.96,0.20,-5.44,39.40,-11.47,0
3552,0.12,0.95,0.13,-14.93,48.50,-17.08,0
3562,0.18,0.93,0.07,-20.95,57.69,-22.85,0
3572,0.22,0.89,0.05,-23.66,66.96,-26.31,0
3582,0.24,0.85,0.08,-25.87,72.21,-28.46,0
3592,0.29,0.90,0.13,-28.62,71.27,-28.85,0
3602,0.34,0.95,0.21,-30.55,65.22,-26.50,0
3612,0.42,0.97,0.25,-33.42,60.91,-23.16,0
3622,0.53,1.02,0.16,-34.68,57.46,-18.77,0
3632,0.65,1.07,0.10,-31.68,50.34,-12.42,0
3642,0.73,1.09,0.05,-26.94,45.14,-4.98,0
3652,0.75,1.09,-0.02,-19.85,43.38,1.09,0
3662,0.74,1.07,-0.10,-9.92,39.09,2.70,0
3672,0.75,1.01,-0.20,3.23,26.64,1.66,0
3682,0.64,0.95,-0.23,18.52,1.97,-0.57,0
3692,0.50,0.93,-0.16,31.55,-22.72,-5.76,0
3702,0.38,0.93,-0.07,38.79,-38.04,-12.18,0
3712,0.27,0.95,-0.02,40.77,-47.05,-17.23,0
3722,0.20,0.95,0.01,40.47,-52.43,-20.73,0
3732,0.11,1.03,0.18,41.89,-51.80,-23.11,0
3742,-0.07,1.49,0.68,37.30,-44.96,-28.69,0
3752,0.10,1.79,0.78,10.98,-34.01,-34.25,0
3762,0.30,1.50,0.30,-19.15,5.86,-23.43,0
3772,0.19,1.21,0.02,-31.30,45.19,-9.41,0
3782,0.09,1.11,-0.08,-29.03,41.55,-5.18,0
3792,0.05,0.96,-0.13,-15.23,29.50,-3.26,0
3802,-0.09,0.94,-0.15,5.38,28.26,-3.23,0
3812,-0.33,1.08,-0.18,30.45,24.37,-9.02,0
3822,-0.54,1.12,-0.18,50.59,12.36,-20.38,0
3832,-0.62,1.12,-0.15,54.75,8.13,-35.68,0
3842,-0.58,1.11,-0.15,44.73,8.85,-49.45,0
3852,-0.50,1.03,-0.20,29.47,6.33,-58.13,0
3862,-0.43,0.97,-0.21,15.80,4.44,-63.20,0
3872,-0.40,0.97,-0.23,5.63,1.54,-66.12,0
3882,-0.36,1.00,-0.28,2.71,0.92,-68.85,0
3892,-0.32,1.01,-0.28,7.67,12.11,-72.94,0
3902,-0.22,1.00,-0.25,16.24,28.63,-78.86,0
3912,-0.05,0.99,-0.25,25.24,45.46,-83.89,0
3922,0.10,0.99,-0.23,33.98,60.27,-84.07,0
3932,0.18,1.01,-0.19,40.79,64.24,-79.67,0
3942,0.22,1.04,-0.13,44.74,53.21,-74.65,0
3952,0.27,1.05,-0.08,45.37,31.31,-70.82,0
3962,0.32,1.06,-0.03,42.41,6.34,-66.89,0
3972,0.36,1.08,0.00,35.99,-10.31,-61.08,0
3982,0.35,1.10,0.01,27.01,-13.96,-53.21,0
3992,0.30,1.10,-0.02,17.32,-6.24,-44.34,0
4002,0.21,1.07,-0.06,9.61,8.05,-36.06,0
4012,0.14,1.05,-0.10,5.03,16.43,-29.88,0
4022,0.10,1.05,-0.12,2.73,13.16,-26.20,0
4032,0.09,1.06,-0.14,2.27,4.15,-25.37,0
4042,0.09,1.06,-0.15,3.84,-3.51,-27.17,0
4052,0.11,1.05,-0.13,7.08,-7.53,-30.36,0
4062,0.13,1.03,-0.12,11.29,-8.10,-32.79,0
4072,0.15,0.99,-0.09,15.60,-5.54,-33.10,0
4082,0.15,0.98,-0.07,18.78,1.18,-31.20,0
4092,0.12,1.00,-0.06,20.50,9.38,-28.25,0
4102,0.08,1.02,-0.05,20.82,18.36,-25.32,0
4112,0.05,1.01,-0.04,19.21,26.19,-23.92,0
4122,0.04,1.00,-0.03,15.89,32.10,-24.11,0
4132,0.04,1.02,-0.04,11.53,38.34,-25.26,0
4142,0.04,1.02,-0.07,7.86,44.10,-27.49,0
4152,0.05,1.01,-0.09,5.80,45.37,-31.24,0
4162,0.10,1.00,-0.11,5.36,42.73,-35.48,0
4172,0.15,0.98,-0.13,6.44,37.31,-38.11,0
4182,0.18,0.97,-0.14,9.07,30.56,-38.42,0
4192,0.20,0.97,-0.15,12.87,23.96,-36.75,0
4202,0.18,0.97,-0.15,16.69,17.08,-33.98,0
4212,0.16,0.98,-0.15,20.37,9.38,-30.68,0
4222,0.10,0.99,-0.14,24.17,3.89,-27.56,0
4232,0.05,1.01,-0.12,26.99,1.15,-26.30,0
4242,0.03,1.03,-0.11,27.91,1.12,-26.91,0
4252,0.02,1.03,-0.10,27.43,2.77,-28.61,0
4262,0.02,1.03,-0.10,26.33,3.47,-30.75,0
4272,0.05,1.02,-0.09,24.58,1.76,-33.14,0
4282,0.09,1.03,-0.07,21.35,-2.24,-34.98,0
4292,0.11,1.06,-0.06,16.19,-6.45,-35.39,0
4302,0.10,1.09,-0.06,9.25,-10.44,-35.46,0
4312,0.09,1.10,-0.07,0.84,-14.88,-36.70,0
4322,0.09,1.08,-0.09,-7.89,-17.87,-38.98,0
4332,0.11,1.07,-0.12,-14.64,-17.03,-41.63,0
4342,0.15,1.04,-0.16,-16.90,-14.01,-44.07,0
4352,0.20,1.00,-0.19,-13.66,-8.78,-45.63,0
4362,0.23,1.01,-0.21,-6.29,2.15,-46.05,0
4372,0.23,1.03,-0.22,2.87,16.35,-46.24,0
4382,0.24,1.03,-0.20,10.21,26.85,-45.92,0
4392,0.28,1.05,-0.20,12.15,32.60,-43.66,0
4402,0.34,1.11,-0.22,13.79,35.02,-37.85,0
4412,0.42,1.19,-0.20,19.35,39.55,-28.77,0
4422,0.48,1.37,-0.14,25.27,48.13,-16.17,0
4432,0.50,1.52,-0.08,28.92,54.33,-0.08,0
4442,0.48,1.62,-0.00,31.34,54.50,17.37,0
4452,0.44,1.61,0.06,32.86,48.31,31.19,0
4462,0.43,1.41,0.13,34.22,40.36,39.53,0
4472,0.50,1.19,0.21,34.35,32.57,47.76,0
4482,0.52,1.18,1.20,29.97,-14.05,60.94,0
4492,0.94,1.17,1.87,-21.43,-171.91,82.18,0
4502,0.68,1.07,1.04,-82.59,-210.21,115.25,0
4512,0.22,1.13,0.44,-103.46,-96.32,133.69,0
4522,0.01,1.28,0.17,-110.88,-7.03,137.59,0
4532,-0.09,1.43,-0.02,-115.24,24.18,139.27,0
4542,-0.27,1.53,-0.14,-116.11,31.46,140.90,0
4552,-0.49,1.45,-0.24,-116.20,18.65,137.64,0
4562,-0.68,1.42,-0.33,-114.88,-19.43,128.01,0
4572,-0.74,1.49,-0.41,-108.63,-67.28,113.76,0
4582,-0.73,1.46,-0.44,-96.20,-102.46,99.20,0
4592,-0.67,1.37,-0.43,-82.03,-125.24,86.60,0
4602,-0.58,1.27,-0.45,-68.66,-133.83,74.85,0
4612,-0.40,1.16,-0.49,-54.78,-121.99,64.11,0
4622,-0.21,1.04,-0.58,-40.24,-91.19,58.17,0
4632,-0.06,0.97,-0.72,-21.64,-48.91,52.60,0
4642,0.15,0.95,-0.76,5.44,-7.56,45.73,0
4652,0.24,1.00,-0.50,33.79,2.12,44.37,0
4662,0.22,1.04,-0.14,49.12,-36.91,46.54,0
4672,0.11,1.01,0.14,48.28,-85.28,48.79,0
4682,-0.04,0.96,0.36,36.45,-106.89,49.50,0
4692,-0.08,0.95,0.43,18.11,-99.00,47.03,0
4702,-0.03,0.93,0.37,0.63,-64.40,42.40,0
4712,-0.03,0.92,0.23,-12.84,-15.88,36.94,0
4722,-0.12,0.89,0.07,-20.65,27.21,29.34,0
4732,-0.22,0.86,-0.06,-23.45,55.70,19.13,0
4742,-0.24,0.84,-0.15,-22.70,62.67,7.62,0
4752,-0.16,0.82,-0.19,-20.01,57.79,-3.09,0
4762,-0.06,0.78,-0.19,-16.41,53.98,-10.58,0
4772,-0.01,0.73,-0.20,-12.40,51.00,-13.69,0
4782,-0.04,0.72,-0.19,-7.05,49.20,-15.43,0
4792,-0.04,0.76,-0.16,-0.50,50.58,-18.95,0
4802,-0.01,0.80,-0.05,5.24,51.27,-22.71,0
4812,0.02,0.86,0.14,5.73,48.08,-26.21,0
4822,0.08,0.90,0.22,0.03,50.49,-30.57,0
4832,0.14,0.94,0.24,-7.17,60.69,-35.42,0
4842,0.23,0.96,0.24,-14.03,70.91,-39.73,0
4852,0.31,0.97,0.18,-20.19,78.29,-42.19,0
4862,0.49,0.98,0.15,-24.31,80.02,-41.63,0
4872,0.59,1.01,0.20,-27.56,82.19,-34.78,0
4882,0.60,1.04,0.13,-29.52,81.69,-26.20,0
4892,0.76,1.07,0.05,-25.15,71.02,-19.50,0
4902,0.85,1.11,-0.05,-15.21,55.98,-10.90,0
4912,0.84,1.15,-0.10,-1.05,32.76,-4.82,0
4922,0.72,1.13,-0.07,14.34,6.43,-4.50,0
4932,0.57,1.07,-0.02,25.99,-8.53,-13.66,0
4942,0.44,0.97,-0.06,35.40,-30.97,-24.52,0
4952,0.37,0.92,-0.06,44.31,-73.54,-33.48,0
4962,0.38,0.92,-0.02,49.82,-95.74,-40.37,0
4972,0.41,1.00,-0.02,52.28,-89.32,-41.76,0
4982,0.41,1.30,0.10,57.26,-64.82,-37.53,0
4992,0.24,1.75,0.92,44.47,-38.18,-30.15,0
5002,0.39,1.85,0.97,-4.03,-22.05,-20.94,0
5012,0.38,1.56,0.47,-41.09,16.76,-9.72,0
5022,0.20,1.33,-0.03,-52.50,45.41,-7.12,0
5032,0.17,1.07,-0.25,-41.68,52.67,-8.71,0
5042,0.15,0.88,-0.34,-21.01,47.98,-2.98,0
5052,-0.14,0.88,-0.36,3.75,39.92,5.99,0
5062,-0.48,0.91,-0.35,27.06,36.78,6.62,0
5072,-0.73,0.93,-0.34,42.92,46.73,-2.85,0
5082,-0.82,0.97,-0.27,46.81,43.95,-19.98,0
5092,-0.77,0.96,-0.20,37.87,32.00,-38.33,0
5102,-0.62,0.92,-0.18,22.95,21.80,-56.34,0
5112,-0.46,1.01,-0.19,10.06,12.01,-70.45,0
5122,-0.38,1.08,-0.18,2.85,5.02,-77.33,0
5132,-0.30,1.03,-0.19,-0.75,4.02,-81.50,0
5142,-0.14,0.92,-0.21,0.60,12.13,-81.92,0
5152,0.01,0.86,-0.22,6.41,25.92,-74.91,0
5162,0.05,0.89,-0.22,14.51,39.77,-64.73,0
5172,0.09,0.96,-0.22,24.70,44.36,-57.77,0
5182,0.13,0.99,-0.18,34.27,39.93,-52.43,0
5192,0.14,0.98,-0.12,39.55,33.39,-48.31,0
5202,0.15,0.98,-0.08,40.21,30.49,-46.44,0
5212,0.17,1.02,-0.06,36.50,30.49,-45.55,0
5222,0.19,1.08,-0.04,27.82,29.63,-43.25,0
5232,0.15,1.13,-0.07,16.01,27.85,-38.85,0
5242,0.09,1.16,-0.12,5.84,24.71,-36.82,0
5252,0.10,1.15,-0.18,0.56,20.33,-37.47,0
5262,0.12,1.11,-0.23,0.51,14.09,-37.89,0
5272,0.15,1.09,-0.26,4.37,4.76,-36.91,0
5282,0.16,1.07,-0.27,11.77,-5.45,-36.07,0
5292,0.17,1.06,-0.22,21.25,-13.80,-37.17,0
5302,0.18,1.04,-0.16,30.47,-18.92,-38.92,0
5312,0.20,1.00,-0.10,37.75,-17.64,-39.87,0
5322,0.23,0.97,-0.05,42.98,-10.19,-37.86,0
5332,0.21,0.97,-0.01,45.28,0.93,-31.75,0
5342,0.12,0.97,0.01,44.43,12.85,-25.49,0
5352,0.04,0.96,0.02,41.29,21.82,-23.07,0
5362,0.02,0.99,0.04,36.70,26.66,-23.29,0
5372,0.01,1.01,0.05,30.67,29.19,-25.07,0
5382,0.01,1.04,0.04,23.69,31.53,-29.33,0
5392,0.04,1.07,0.01,16.85,35.47,-34.92,0
5402,0.06,1.07,-0.02,10.65,41.15,-39.21,0
5412,0.09,1.04,-0.04,5.31,43.72,-41.00,0
5422,0.12,1.01,-0.08,1.43,39.86,-39.96,0
5432,0.14,0.97,-0.13,0.69,33.85,-36.08,0
5442,0.13,0.95,-0.16,3.82,27.95,-30.21,0
5452,0.10,0.96,-0.17,9.02,22.60,-24.85,0
5462,0.05,0.98,-0.17,13.71,17.69,-21.50,0
5472,0.03,1.00,-0.16,16.82,12.02,-20.84,0
5482,0.02,1.02,-0.15,18.93,6.31,-22.27,0
5492,0.04,1.01,-0.13,19.82,1.04,-24.57,0
5502,0.05,1.01,-0.12,19.59,-4.75,-26.76,0
5512,0.06,1.02,-0.12,19.05,-10.32,-28.92,0
5522,0.05,1.03,-0.11,18.32,-13.87,-31.78,0
5532,0.06,1.04,-0.09,16.20,-13.92,-35.86,0
5542,0.10,1.06,-0.09,11.90,-12.92,-39.02,0
5552,0.12,1.07,-0.13,7.44,-12.03,-39.68,0
5562,0.11,1.07,-0.17,5.15,-11.19,-39.91,0
5572,0.14,1.06,-0.18,5.53,-8.10,-41.10,0
5582,0.18,1.07,-0.21,6.77,-3.12,-41.42,0
5592,0.21,1.09,-0.22,10.40,4.82,-40.71,0
5602,0.25,1.19,-0.20,15.21,12.59,-39.57,0
5612,0.31,1.28,-0.13,16.92,18.85,-36.11,0
5622,0.37,1.35,-0.12,15.16,25.82,-29.60,0
5632,0.43,1.41,-0.08,15.59,34.43,-19.74,0
5642,0.46,1.42,-0.05,16.43,41.18,-6.84,0
5652,0.45,1.41,-0.02,17.31,45.66,7.35,0
5662,0.45,1.40,0.05,17.92,43.53,21.70,0
5672,0.43,1.33,0.09,15.95,36.71,34.63,0
5682,0.42,1.22,0.07,16.25,25.18,43.71,0
5692,0.52,1.13,0.12,23.83,6.87,50.42,0
5702,0.66,1.15,1.19,25.34,-53.85,61.14,0
5712,1.03,1.09,1.75,-25.15,-212.07,83.34,0
5722,0.76,0.97,0.95,-81.19,-241.50,116.78,0
5732,0.23,1.03,0.46,-98.23,-130.73,137.15,0
5742,-0.05,1.23,0.23,-105.27,-49.67,144.27,0
5752,-0.17,1.53,0.01,-109.17,-23.05,147.31,0
5762,-0.36,1.61,-0.09,-108.76,-14.57,146.23,0
5772,-0.58,1.50,-0.16,-110.95,-28.05,137.61,0
5782,-0.65,1.51,-0.26,-110.89,-63.15,121.57,0
5792,-0.62,1.52,-0.31,-104.27,-93.27,105.84,0
5802,-0.57,1.40,-0.31,-97.02,-113.18,95.60,0
5812,-0.53,1.28,-0.41,-97.41,-149.08,93.41,0
5822,-0.54,1.25,-0.61,-94.09,-186.65,97.52,0
5832,-0.52,1.26,-0.76,-74.99,-184.03,100.50,0
5842,-0.50,1.23,-0.92,-44.25,-128.11,92.44,0
5852,-0.34,1.16,-1.00,-4.86,-49.08,70.15,0
5862,-0.16,1.06,-0.86,34.99,7.44,48.29,0
5872,-0.02,0.96,-0.56,66.04,9.66,35.39,0
5882,0.10,0.90,-0.20,83.75,-31.49,30.51,0
5892,0.17,0.88,0.16,85.75,-72.00,30.59,0
5902,0.15,0.88,0.53,71.50,-80.71,32.83,0
5912,0.08,0.92,0.65,40.11,-71.53,33.53,0
5922,-0.01,0.94,0.33,10.39,-35.43,28.82,0
5932,-0.08,0.91,0.09,-4.34,18.91,17.69,0
5942,-0.09,0.87,-0.08,-9.82,54.59,6.72,0
5952,-0.15,0.84,-0.17,-9.15,71.53,-1.71,0
5962,-0.17,0.81,-0.22,-5.25,83.34,-11.15,0
5972,-0.10,0.77,-0.25,0.78,87.97,-20.05,0
5982,0.04,0.74,-0.22,7.60,88.63,-25.33,0
5992,0.12,0.73,-0.15,12.94,85.79,-25.15,0
6002,0.11,0.76,-0.03,15.53,73.98,-22.57,0
6012,0.13,0.83,0.17,12.47,55.37,-22.31,0
6022,0.22,0.90,0.29,1.78,41.02,-23.11,0
6032,0.20,0.92,0.28,-11.95,32.27,-23.29,0
6042,0.22,0.92,0.20,-22.81,30.14,-26.24,0
6052,0.34,0.94,0.10,-28.66,41.41,-29.86,0
6062,0.39,0.97,-0.02,-29.73,61.77,-30.27,0
6072,0.38,0.99,-0.09,-26.85,76.89,-29.67,0
6082,0.43,1.01,-0.12,-21.69,80.40,-28.60,0
6092,0.50,1.01,-0.14,-14.84,69.08,-24.31,0
6102,0.60,1.02,-0.13,-6.45,49.45,-16.98,0
6112,0.66,1.05,-0.13,3.66,26.64,-8.58,0
6122,0.67,1.09,-0.10,14.69,1.47,-2.89,0
6132,0.64,1.12,-0.03,24.47,-22.21,-1.33,0
6142,0.56,1.09,0.06,31.34,-34.74,-4.05,0
6152,0.44,1.04,0.07,35.45,-34.66,-10.25,0
6162,0.30,0.98,0.01,39.36,-32.77,-19.27,0
6172,0.23,0.92,-0.05,44.18,-35.82,-30.05,0
6182,0.23,0.90,-0.06,47.27,-38.70,-39.82,0
6192,0.31,0.93,-0.09,46.73,-34.85,-46.12,0
6202,0.33,1.10,-0.07,46.87,-24.24,-47.27,0
6212,0.18,1.53,0.41,40.28,-21.31,-45.43,0
6222,0.19,1.89,0.77,3.63,-31.93,-41.54,0
6232,0.36,1.83,0.53,-36.77,-21.21,-35.89,0
6242,0.45,1.51,0.17,-55.93,7.73,-33.30,0
6252,0.48,1.09,-0.03,-52.47,42.39,-31.76,0
6262,0.35,0.79,-0.11,-36.38,71.31,-24.02,0
6272,0.12,0.80,-0.21,-18.37,85.55,-14.13,0
6282,-0.14,0.91,-0.27,0.70,84.34,-11.66,0
6292,-0.38,0.92,-0.25,17.82,73.22,-18.85,0
6302,-0.52,0.93,-0.27,26.63,66.37,-29.13,0
6312,-0.54,1.01,-0.23,25.43,54.73,-36.82,0
6322,-0.48,1.03,-0.20,14.68,30.34,-39.03,0
6332,-0.45,0.96,-0.22,0.40,8.74,-38.69,0
6342,-0.45,0.97,-0.26,-10.34,-10.76,-41.76,0
6352,-0.40,1.03,-0.29,-12.70,-24.23,-47.85,0
6362,-0.31,0.99,-0.32,-9.66,-27.73,-53.60,0
6372,-0.23,0.90,-0.35,-1.63,-19.56,-57.12,0
6382,-0.17,0.89,-0.37,11.93,-3.22,-57.33,0
6392,-0.12,0.95,-0.34,28.26,13.02,-55.54,0
6402,-0.05,0.99,-0.26,42.70,19.66,-56.50,0
6412,0.05,1.01,-0.18,51.03,20.92,-58.88,0
6422,0.15,1.00,-0.12,53.31,24.52,-60.66,0
6432,0.23,1.01,-0.08,51.85,31.49,-60.15,0
6442,0.27,1.05,-0.03,46.34,39.58,-56.76,0
6452,0.27,1.10,-0.03,35.86,49.06,-49.93,0
6462,0.23,1.13,-0.07,25.12,58.35,-42.52,0
6472,0.19,1.15,-0.10,17.97,61.31,-37.64,0
6482,0.16,1.12,-0.12,13.37,54.29,-34.48,0
6492,0.15,1.08,-0.13,9.73,37.05,-31.86,0
6502,0.14,1.08,-0.14,8.21,19.15,-30.36,0
6512,0.13,1.07,-0.14,9.40,4.92,-30.40,0
6522,0.11,1.05,-0.13,13.22,-6.16,-31.66,0
6532,0.11,1.01,-0.11,18.36,-12.85,-32.24,0
6542,0.10,1.00,-0.07,23.24,-9.00,-29.98,0
6552,0.04,1.01,-0.06,26.26,4.85,-25.47,0
6562,-0.02,1.01,-0.06,27.45,20.24,-22.11,0
6572,-0.05,1.01,-0.06,26.67,32.69,-21.23,0
6582,-0.06,1.00,-0.05,23.98,40.81,-22.53,0
6592,-0.05,0.98,-0.04,18.93,43.88,-25.23,0
6602,-0.03,0.97,-0.07,13.14,45.24,-29.02,0
6612,-0.02,0.98,-0.08,8.37,47.19,-33.56,0
6622,0.01,0.99,-0.09,4.63,46.11,-39.21,0
6632,0.06,1.01,-0.11,1.31,40.28,-45.00,0
6642,0.13,1.03,-0.12,-1.77,30.20,-48.20,0
6652,0.19,1.02,-0.14,-5.03,14.80,-47.47,0
6662,0.22,1.01,-0.18,-6.38,-4.18,-43.22,0
6672,0.22,1.01,-0.22,-3.80,-19.06,-36.70,0
6682,0.18,0.99,-0.25,1.40,-27.89,-29.43,0
6692,0.13,0.97,-0.26,7.12,-33.18,-24.15,0
6702,0.08,0.98,-0.25,12.28,-35.21,-22.08,0
6712,0.05,1.00,-0.23,16.49,-35.07,-22.96,0
6722,0.03,1.02,-0.21,20.47,-34.20,-25.87,0
6732,0.04,1.03,-0.20,25.38,-32.66,-29.46,0
6742,0.06,1.05,-0.17,30.26,-29.12,-32.43,0
6752,0.08,1.06,-0.13,33.52,-22.64,-34.23,0
6762,0.09,1.07,-0.09,33.34,-14.43,-35.38,0
6772,0.07,1.08,-0.07,29.86,-6.26,-35.92,0
6782,0.06,1.07,-0.06,23.71,-1.12,-37.02,0
6792,0.08,1.07,-0.08,16.54,-0.88,-38.75,0
6802,0.13,1.07,-0.10,10.60,-2.93,-39.94,0
6812,0.16,1.03,-0.12,6.87,-3.31,-39.94,0
6822,0.20,1.00,-0.15,6.33,-3.34,-38.66,0
6832,0.24,1.01,-0.17,8.50,-2.25,-36.11,0
6842,0.26,1.08,-0.15,11.49,3.27,-32.61,0
6852,0.27,1.23,-0.11,12.38,9.40,-28.85,0
6862,0.29,1.39,-0.07,8.98,11.43,-24.99,0
6872,0.32,1.43,-0.04,1.34,10.68,-19.69,0
6882,0.38,1.40,-0.06,-7.41,9.41,-12.50,0
6892,0.47,1.35,-0.11,-9.86,10.18,-2.26,0
6902,0.48,1.30,-0.10,-2.42,15.03,12.01,0
6912,0.44,1.26,0.00,9.34,18.95,25.50,0
6922,0.46,1.23,0.09,18.25,20.21,35.83,0
6932,0.43,1.16,0.20,25.05,15.49,45.17,0
6942,0.63,1.19,1.48,24.01,-43.94,54.37,0
6952,1.02,1.19,1.87,-29.88,-179.10,76.47,0
6962,0.65,1.10,1.01,-90.76,-193.88,108.63,0
6972,0.28,1.12,0.37,-119.57,-109.50,122.84,0
6982,0.13,1.20,0.03,-129.37,-40.41,123.97,0
6992,-0.01,1.29,-0.15,-129.76,-5.95,124.92,0
7002,-0.20,1.46,-0.28,-123.76,-2.53,124.80,0
7012,-0.42,1.49,-0.34,-112.95,-20.44,121.33,0
7022,-0.62,1.45,-0.36,-104.88,-51.28,114.85,0
7032,-0.69,1.54,-0.46,-97.35,-83.28,104.40,0
7042,-0.68,1.51,-0.47,-84.21,-110.08,96.03,0
7052,-0.68,1.40,-0.42,-72.19,-138.82,93.47,0
7062,-0.70,1.31,-0.41,-64.82,-162.14,92.92,0
7072,-0.66,1.27,-0.47,-58.87,-166.78,89.46,0
7082,-0.52,1.20,-0.59,-49.08,-135.83,76.40,0
7092,-0.25,1.10,-0.75,-32.42,-71.46,54.11,0
7102,0.04,0.98,-0.92,-7.05,-6.66,36.85,0
7112,0.21,0.96,-0.93,26.62,28.37,30.65,0
7122,0.13,0.93,-0.58,60.72,10.79,31.14,0
7132,0.05,0.88,-0.21,73.71,-38.29,27.75,0
7142,0.01,0.93,-0.02,74.04,-60.72,23.63,0
7152,-0.09,0.89,0.18,70.74,-50.15,21.79,0
7162,-0.14,0.87,0.29,57.40,-33.08,16.39,0
7172,-0.13,0.88,0.39,38.72,-10.60,8.17,0
7182,-0.13,0.86,0.32,18.15,21.60,-0.53,0
7192,-0.21,0.81,0.14,2.15,53.86,-9.27,0
7202,-0.23,0.78,0.02,-6.35,72.02,-18.86,0
7212,-0.20,0.76,-0.06,-9.37,83.90,-27.82,0
7222,-0.14,0.75,-0.11,-9.02,91.64,-35.43,0
7232,-0.03,0.75,-0.14,-6.60,92.95,-39.95,0
7242,0.09,0.75,-0.15,-2.73,90.20,-40.32,0
7252,0.16,0.78,-0.10,1.95,78.19,-36.39,0
7262,0.27,0.87,0.15,3.34,55.92,-30.29,0
7272,0.28,0.97,0.29,-4.32,33.66,-22.92,0
7282,0.29,1.01,0.21,-12.64,22.36,-18.45,0
7292,0.29,1.05,0.15,-15.76,30.19,-17.53,0
7302,0.37,1.06,0.03,-16.26,51.44,-18.08,0
7312,0.38,1.05,-0.03,-15.24,71.63,-17.15,0
7322,0.41,1.05,-0.09,-15.08,78.63,-17.05,0
7332,0.52,1.04,-0.20,-13.51,72.29,-14.91,0
7342,0.54,1.06,-0.24,-7.45,57.76,-9.10,0
7352,0.45,1.09,-0.25,1.63,21.51,-3.95,0
7362,0.47,1.09,-0.20,13.94,-20.96,-2.15,0
7372,0.49,1.08,-0.10,24.54,-45.68,0.93,0
7382,0.43,1.06,-0.00,30.85,-53.81,4.48,0
7392,0.38,1.05,0.03,33.97,-59.46,4.97,0
7402,0.33,1.03,0.02,37.24,-64.54,1.63,0
7412,0.33,0.98,-0.01,41.61,-69.77,-4.60,0
7422,0.34,0.96,-0.03,45.31,-65.32,-11.58,0
7432,0.33,0.95,-0.03,47.79,-48.93,-17.92,0
7442,0.28,0.93,-0.02,47.99,-34.52,-24.37,0
7452,0.25,0.91,-0.02,44.22,-25.62,-32.18,0
7462,0.31,0.96,-0.08,39.26,-13.85,-39.44,0
7472,0.17,1.33,0.19,37.25,-5.09,-42.97,0
7482,0.02,1.83,0.97,9.34,-27.12,-42.71,0
7492,0.27,1.95,0.87,-43.95,-41.73,-38.21,0
7502,0.50,1.72,0.14,-71.64,9.44,-30.37,0
7512,0.43,1.47,-0.37,-66.33,77.37,-22.92,0
7522,0.24,1.16,-0.38,-43.34,111.08,-17.85,0
7532,0.04,0.99,-0.36,-26.93,108.56,-14.83,0
7542,-0.14,0.91,-0.37,-11.21,103.08,-15.25,0
7552,-0.30,0.76,-0.35,8.92,85.27,-20.93,0
7562,-0.39,0.74,-0.32,27.80,62.51,-29.59,0
7572,-0.40,0.91,-0.28,36.24,45.20,-33.44,0
7582,-0.50,1.04,-0.21,27.50,19.72,-30.42,0
7592,-0.61,1.00,-0.22,9.32,-9.29,-29.99,0
7602,-0.57,0.99,-0.28,-3.89,-37.39,-38.82,0
7612,-0.40,0.97,-0.26,-7.13,-57.44,-48.79,0
7622,-0.28,0.89,-0.25,-3.70,-56.85,-50.81,0
7632,-0.25,0.82,-0.29,5.50,-40.99,-48.60,0
7642,-0.22,0.84,-0.29,20.80,-17.80,-48.08,0
7652,-0.18,0.92,-0.23,37.34,5.21,-49.27,0
7662,-0.07,0.97,-0.15,47.94,18.18,-53.98,0
7672,0.09,0.98,-0.07,49.63,20.85,-58.70,0
7682,0.20,0.97,-0.05,44.45,22.66,-59.47,0
7692,0.26,0.98,-0.03,36.57,27.41,-57.77,0
7702,0.29,1.03,0.00,25.76,31.76,-54.31,0
7712,0.27,1.07,-0.01,10.48,34.34,-48.67,0
7722,0.24,1.11,-0.08,-2.35,38.29,-42.18,0
7732,0.18,1.11,-0.13,-8.64,41.70,-35.53,0
7742,0.12,1.07,-0.16,-10.08,39.02,-30.56,0
7752,0.11,1.05,-0.16,-9.77,32.58,-28.79,0
7762,0.13,1.06,-0.17,-9.79,25.23,-28.92,0
7772,0.13,1.08,-0.18,-9.28,19.55,-28.56,0
7782,0.10,1.08,-0.20,-7.39,12.31,-28.06,0
7792,0.11,1.07,-0.20,-3.28,2.98,-28.95,0
7802,0.13,1.05,-0.19,3.39,0.54,-28.32,0
7812,0.12,1.03,-0.17,10.49,6.18,-25.35,0
7822,0.09,1.02,-0.13,15.76,15.27,-21.80,0
7832,0.05,0.99,-0.11,18.69,27.69,-19.66,0
7842,0.03,0.98,-0.10,20.29,39.12,-19.76,0
7852,0.01,0.97,-0.09,20.50,48.07,-21.63,0
7862,-0.01,0.93,-0.08,18.93,53.22,-25.82,0
7872,0.03,0.94,-0.09,15.30,56.49,-30.39,0
7882,0.06,0.97,-0.11,10.85,61.15,-32.86,0
7892,0.05,0.98,-0.15,7.68,66.08,-34.81,0
7902,0.04,1.00,-0.18,6.53,64.42,-36.48,0
7912,0.04,1.03,-0.21,7.15,57.44,-36.03,0
7922,0.02,1.04,-0.22,9.42,49.94,-34.40,0
7932,-0.01,1.03,-0.22,12.98,40.55,-32.92,0
7942,-0.01,1.01,-0.22,16.71,29.10,-32.04,0
7952,-0.02,1.00,-0.20,20.47,17.77,-31.39,0
7962,-0.03,0.98,-0.18,24.18,8.33,-31.48,0
7972,-0.04,0.97,-0.15,26.53,0.69,-32.82,0
7982,-0.02,0.97,-0.13,27.70,-5.23,-35.56,0
7992,0.00,0.97,-0.11,27.75,-8.34,-39.08,0
8002,0.04,0.98,-0.08,26.79,-9.22,-43.17,0
8012,0.09,1.02,-0.07,24.92,-9.99,-47.44,0
8022,0.16,1.05,-0.07,22.03,-10.98,-50.15,0
8032,0.22,1.08,-0.07,18.65,-8.94,-50.37,0
8042,0.25,1.11,-0.08,14.59,-3.24,-48.45,0
8052,0.27,1.14,-0.09,10.05,2.05,-45.53,0
8062,0.29,1.18,-0.11,5.80,4.24,-42.50,0
8072,0.34,1.27,-0.14,2.35,4.85,-39.52,0
8082,0.43,1.41,-0.16,1.50,6.20,-35.47,0
8092,0.55,1.54,-0.15,3.35,11.34,-27.27,0
8102,0.62,1.63,-0.13,7.37,17.78,-14.79,0
8112,0.68,1.63,-0.07,12.47,22.52,0.90,0
8122,0.68,1.49,0.03,14.15,18.61,20.82,0
8132,0.65,1.32,0.07,11.12,3.75,42.63,0
8142,0.59,1.23,0.14,9.73,-15.37,62.82,0
8152,0.56,1.25,1.17,7.40,-62.69,79.80,0
8162,0.91,1.21,1.71,-42.21,-220.94,100.81,0
8172,0.71,1.09,0.81,-89.71,-250.14,130.32,0
8182,0.24,1.07,0.46,-92.50,-160.91,144.98,0
8192,-0.09,1.16,0.34,-92.84,-60.26,144.47,0
8202,-0.28,1.33,0.11,-98.69,-23.09,143.21,0
8212,-0.49,1.48,-0.11,-97.99,-18.88,141.95,0
8222,-0.74,1.42,-0.18,-90.85,-30.06,133.75,0
8232,-0.92,1.31,-0.21,-86.07,-62.79,116.53,0
8242,-0.87,1.31,-0.28,-82.84,-111.31,93.50,0
8252,-0.72,1.30,-0.28,-75.18,-148.92,78.56,0
8262,-0.65,1.23,-0.26,-65.91,-163.06,72.58,0
8272,-0.59,1.16,-0.28,-57.54,-161.29,66.16,0
8282,-0.44,1.12,-0.30,-50.36,-146.76,59.37,0
8292,-0.27,1.14,-0.36,-44.10,-116.75,55.09,0
8302,-0.17,1.16,-0.46,-35.35,-76.03,51.60,0
8312,-0.02,1.15,-0.58,-20.73,-38.32,45.25,0
8322,0.16,1.01,-0.56,-1.63,-10.59,40.81,0
8332,0.19,0.92,-0.46,11.85,-9.53,41.15,0
8342,0.09,0.88,-0.29,23.01,-46.22,42.96,0
8352,0.01,0.81,-0.09,26.67,-86.95,44.25,0
8362,-0.09,0.82,0.01,22.82,-94.32,44.15,0
8372,-0.13,0.85,0.07,19.47,-68.58,37.60,0
8382,-0.14,0.88,0.08,14.92,-32.76,27.85,0
8392,-0.16,0.89,0.09,8.57,-5.83,18.02,0
8402,-0.18,0.90,0.06,0.98,8.95,9.60,0
8412,-0.22,0.88,-0.01,-4.95,17.35,1.30,0
8422,-0.19,0.85,-0.07,-7.55,24.17,-8.42,0
8432,-0.11,0.80,-0.11,-7.30,31.41,-16.79,0
8442,-0.01,0.75,-0.12,-4.47,43.40,-22.35,0
8452,0.04,0.74,-0.13,0.53,57.50,-25.08,0
8462,0.08,0.76,-0.11,6.52,66.80,-26.31,0
8472,0.12,0.80,-0.05,11.30,70.66,-27.67,0
8482,0.22,0.87,0.08,12.47,68.92,-28.28,0
8492,0.30,0.96,0.16,7.58,58.40,-25.64,0
8502,0.30,1.00,0.13,1.02,47.31,-23.57,0
8512,0.30,1.04,0.19,-4.16,47.32,-25.00,0
8522,0.38,1.03,0.17,-11.27,63.09,-27.71,0
8532,0.50,1.01,0.07,-17.40,77.89,-26.47,0
8542,0.60,0.98,0.03,-20.64,87.92,-20.76,0
8552,0.64,0.98,-0.04,-21.39,89.56,-13.44,0
8562,0.67,1.04,-0.11,-17.45,71.48,-6.80,0
8572,0.71,1.09,-0.11,-9.32,38.45,-1.20,0
8582,0.75,1.12,-0.08,-0.11,0.58,3.64,0
8592,0.69,1.12,-0.07,10.36,-29.10,6.56,0
8602,0.51,1.09,-0.07,22.70,-45.23,3.99,0
8612,0.36,1.00,-0.02,35.42,-60.02,-4.80,0
8622,0.34,0.97,0.02,44.16,-74.94,-14.93,0
8632,0.29,0.98,0.05,48.50,-69.36,-22.82,0
8642,0.20,0.98,0.04,48.63,-50.08,-29.69,0
8652,0.14,0.96,0.01,46.19,-30.40,-35.82,0
8662,0.12,0.95,-0.02,42.27,-8.52,-40.07,0
8672,0.09,1.12,-0.06,40.25,17.51,-43.00,0
8682,-0.08,1.58,0.22,38.28,38.92,-47.25,0
8692,-0.16,1.89,0.99,8.67,31.27,-48.95,0
8702,0.25,1.73,0.90,-39.57,24.86,-44.69,0
8712,0.49,1.34,0.09,-66.65,57.66,-31.56,0
8722,0.32,1.18,-0.42,-62.36,86.96,-19.28,0
8732,0.02,1.11,-0.37,-39.61,69.41,-14.34,0
8742,-0.11,0.98,-0.28,-18.13,32.27,-18.86,0
8752,-0.13,0.84,-0.19,6.21,18.83,-27.68,0
8762,-0.17,0.78,-0.20,29.85,18.69,-34.21,0
8772,-0.25,0.92,-0.23,47.42,21.32,-36.11,0
8782,-0.35,1.06,-0.15,52.13,24.73,-33.17,0
8792,-0.45,1.02,-0.08,38.73,12.32,-28.84,0
8802,-0.51,0.94,-0.13,19.24,-3.47,-30.31,0
8812,-0.45,0.99,-0.17,5.72,-19.25,-39.82,0
8822,-0.34,1.02,-0.16,-1.56,-32.44,-48.31,0
8832,-0.23,0.97,-0.15,-6.46,-37.31,-52.28,0
8842,-0.13,0.89,-0.17,-8.37,-29.52,-54.27,0
8852,-0.05,0.87,-0.22,-5.69,-10.97,-53.62,0
8862,-0.03,0.90,-0.24,0.37,5.34,-52.23,0
8872,0.07,0.92,-0.22,7.04,10.18,-52.67,0
8882,0.13,0.96,-0.21,13.31,15.82,-50.08,0
8892,0.13,1.01,-0.21,20.18,29.54,-46.69,0
8902,0.13,1.07,-0.18,26.47,47.50,-44.08,0
8912,0.12,1.08,-0.12,28.08,67.13,-40.93,0
8922,0.10,1.08,-0.10,23.44,83.95,-37.04,0
8932,0.09,1.10,-0.14,19.81,97.70,-33.88,0
8942,0.08,1.09,-0.17,21.78,114.21,-31.60,0
8952,0.08,1.05,-0.19,27.43,130.63,-29.88,0
8962,0.07,1.00,-0.18,34.00,139.37,-27.92,0
8972,0.05,0.99,-0.15,38.16,137.69,-24.97,0
8982,0.04,1.00,-0.15,39.65,126.08,-21.20,0
8992,0.01,0.99,-0.16,39.06,105.15,-17.78,0
9002,0.02,0.96,-0.17,37.39,79.85,-16.20,0
9012,0.05,0.95,-0.18,36.30,59.22,-14.31,0
9022,0.05,0.98,-0.20,36.21,42.90,-11.73,0
9032,0.06,0.99,-0.19,37.12,28.51,-11.44,0
9042,0.08,1.02,-0.18,38.08,19.15,-13.19,0
9052,0.12,1.03,-0.18,38.80,16.96,-15.09,0
9062,0.17,1.02,-0.18,39.64,22.45,-16.52,0
9072,0.22,1.04,-0.16,40.05,32.60,-16.77,0
9082,0.25,1.09,-0.16,40.63,46.48,-17.67,0
9092,0.27,1.10,-0.18,42.77,59.44,-19.74,0
9102,0.27,1.10,-0.18,44.89,63.18,-22.47,0
9112,0.27,1.10,-0.19,46.68,57.68,-25.97,0
9122,0.30,1.08,-0.17,48.28,45.24,-28.61,0
9132,0.32,1.03,-0.13,48.72,29.60,-28.11,0
9142,0.31,0.99,-0.09,47.58,12.69,-22.36,0
9152,0.23,0.98,-0.06,44.62,-1.81,-13.66,0
9162,0.15,0.98,-0.04,40.05,-13.61,-7.96,0
9172,0.11,0.98,-0.04,35.30,-26.56,-6.03,0
9182,0.09,0.99,-0.04,30.64,-40.16,-5.48,0
9192,0.09,1.01,-0.04,25.94,-49.37,-5.63,0
9202,0.07,1.00,-0.07,21.44,-52.23,-7.04,0
9212,0.07,0.99,-0.10,17.83,-52.50,-10.22,0
9222,0.08,0.99,-0.12,14.96,-53.36,-13.74,0
9232,0.10,1.01,-0.14,12.44,-55.25,-16.09,0
9242,0.09,1.03,-0.15,8.98,-60.09,-18.40,0
9252,0.10,1.04,-0.15,4.58,-67.63,-21.40,0
9262,0.11,1.04,-0.17,-0.14,-73.92,-24.82,0
9272,0.14,1.03,-0.21,-3.85,-77.90,-28.05,0
9282,0.16,1.02,-0.27,-5.47,-82.44,-29.36,0
9292,0.17,1.00,-0.31,-4.08,-88.92,-28.99,0
9302,0.19,0.97,-0.33,0.10,-89.12,-27.18,0
9312,0.19,0.95,-0.32,7.50,-78.66,-24.64,0
9322,0.20,0.93,-0.28,15.87,-60.26,-22.06,0
9332,0.22,0.99,-0.21,21.88,-35.59,-19.63,0
9342,0.27,1.16,-0.16,24.87,-4.23,-16.19,0
9352,0.33,1.33,-0.12,26.27,26.73,-11.95,0
9362,0.42,1.42,-0.08,27.27,52.69,-7.02,0
9372,0.47,1.45,-0.03,27.92,75.32,0.07,0
9382,0.52,1.44,0.03,26.67,93.96,9.15,0
9392,0.54,1.45,0.08,22.08,107.55,20.60,0
9402,0.49,1.48,0.39,13.43,112.49,32.88,0
9412,0.39,1.63,1.93,-36.54,-22.67,45.04,0
9422,0.48,1.47,1.15,-151.02,-250.14,57.26,0
9432,0.59,1.20,-0.15,-178.66,-250.14,65.47,0
9442,0.74,0.99,-0.26,-133.19,-237.98,76.88,0
9452,0.66,0.92,0.01,-83.45,-125.02,94.85,0
9462,0.38,1.01,0.40,-59.66,19.60,111.53,0
9472,0.02,1.25,0.44,-69.04,66.61,124.00,0
9482,-0.19,1.37,0.17,-87.48,83.07,130.50,0
9492,-0.41,1.40,-0.15,-96.37,95.24,124.73,0
9502,-0.50,1.48,-0.43,-94.85,72.72,106.80,0
9512,-0.53,1.55,-0.52,-84.99,31.18,85.87,0
9522,-0.57,1.64,-0.52,-76.98,-16.53,65.16,0
9532,-0.56,1.69,-0.50,-77.03,-75.38,47.21,0
9542,-0.50,1.66,-0.47,-84.97,-131.11,33.13,0
9552,-0.36,1.56,-0.51,-95.36,-170.62,23.60,0
9562,-0.12,1.35,-0.60,-98.41,-185.50,22.01,0
9572,0.15,1.08,-0.73,-84.56,-165.32,27.70,0
9582,0.32,0.86,-0.72,-50.24,-130.18,38.00,0
9592,0.29,0.74,-0.51,-8.90,-111.32,47.10,0
9602,0.13,0.73,-0.16,18.95,-116.63,52.46,0
9612,-0.05,0.78,0.14,22.60,-124.15,55.57,0
9622,-0.20,0.85,0.25,8.89,-118.15,56.73,0
9632,-0.18,0.88,0.20,-10.38,-89.81,51.22,0
9642,-0.09,0.88,0.13,-25.08,-40.82,42.06,0
9652,-0.02,0.89,0.04,-34.02,4.38,33.22,0
9662,-0.01,0.91,-0.04,-37.47,44.89,25.07,0
9672,-0.06,0.93,-0.12,-37.38,75.67,17.22,0
9682,-0.07,0.92,-0.17,-34.66,84.90,10.19,0
9692,-0.05,0.90,-0.19,-30.45,85.50,4.07,0
9702,0.01,0.87,-0.21,-25.15,85.65,-0.03,0
9712,0.04,0.83,-0.21,-20.03,82.54,-1.53,0
9722,0.03,0.81,-0.23,-15.55,73.47,-1.61,0
9732,-0.01,0.78,-0.24,-10.80,60.25,-2.14,0
9742,-0.04,0.76,-0.16,-6.43,45.27,-5.34,0
9752,-0.04,0.76,-0.01,-5.59,28.85,-10.08,0
9762,-0.03,0.77,0.11,-9.79,14.55,-15.73,0
9772,0.02,0.82,0.16,-15.78,8.14,-22.31,0
9782,0.10,0.86,0.20,-20.21,15.72,-28.98,0
9792,0.21,0.92,0.26,-23.21,34.08,-33.33,0
9802,0.33,0.96,0.31,-26.79,55.21,-33.19,0
9812,0.45,0.99,0.27,-30.06,70.95,-28.02,0
9822,0.52,1.03,0.18,-30.88,78.34,-19.51,0
9832,0.57,1.09,0.05,-26.82,77.07,-11.04,0
9842,0.58,1.14,-0.04,-15.83,70.44,-5.60,0
9852,0.58,1.17,-0.05,-0.66,55.63,-6.74,0
9862,0.57,1.14,-0.02,14.57,36.78,-13.80,0
9872,0.47,1.06,-0.05,31.02,18.31,-26.14,0
9882,0.34,0.87,-0.12,45.67,1.63,-42.06,0
9892,0.34,0.76,-0.11,56.91,-17.31,-54.81,0
9902,0.37,0.72,-0.11,62.98,-30.47,-60.02,0
9912,0.34,0.69,-0.12,60.95,-21.25,-58.89,0
9922,0.32,0.70,-0.09,51.14,5.13,-53.75,0
9932,0.29,0.85,-0.03,39.05,27.40,-44.82,0
9942,-0.02,1.22,0.59,19.22,19.37,-36.15,0
9952,0.09,1.61,0.60,-31.15,-57.69,-33.68,0
9962,0.38,1.91,0.24,-47.92,-117.24,-21.57,0
9972,0.37,1.95,0.25,-6.69,-91.51,1.40,0
9982,0.11,1.65,0.34,25.73,-7.31,8.27,0
9992,-0.08,1.36,0.17,27.47,52.18,-6.93,0
10002,-0.14,1.24,-0.07,25.60,74.89,-22.28,0
10012,-0.17,1.07,-0.19,28.48,75.82,-27.57,0
10022,-0.27,0.86,-0.20,31.50,72.38,-26.85,0
10032,-0.37,0.72,-0.12,30.33,67.46,-28.74,0
10042,-0.37,0.71,-0.07,20.72,59.32,-36.08,0
10052,-0.35,0.77,-0.10,4.74,46.21,-43.21,0
10062,-0.27,0.84,-0.18,-8.11,29.05,-47.95,0
10072,-0.22,0.89,-0.25,-12.94,14.27,-47.67,0
10082,-0.20,0.91,-0.33,-10.65,10.92,-46.31,0
10092,-0.13,0.95,-0.40,-2.64,20.57,-44.67,0
10102,-0.05,0.97,-0.45,9.31,38.55,-41.31,0
10112,0.06,0.98,-0.44,22.80,62.63,-35.79,0
10122,0.11,1.00,-0.43,35.15,88.24,-27.56,0
10132,0.11,1.02,-0.41,44.84,104.31,-19.22,0
10142,0.11,1.03,-0.37,51.78,109.69,-14.14,0
10152,0.14,1.03,-0.33,56.02,112.34,-11.84,0
10162,0.17,1.03,-0.28,57.78,117.03,-11.39,0
10172,0.19,1.06,-0.24,57.76,126.37,-11.66,0
10182,0.15,1.09,-0.19,56.25,131.03,-12.47,0
10192,0.13,1.14,-0.18,54.08,121.56,-14.72,0
10202,0.12,1.16,-0.18,54.79,102.37,-19.02,0
10212,0.13,1.14,-0.16,57.82,84.21,-24.31,0
10222,0.12,1.11,-0.19,61.72,67.82,-29.34,0
10232,0.15,1.07,-0.17,67.98,42.59,-32.49,0
10242,0.18,1.05,-0.10,71.59,17.08,-31.93,0
10252,0.21,1.03,-0.05,69.18,0.62,-29.33,0
10262,0.21,1.01,-0.02,63.05,-7.80,-25.95,0
10272,0.21,1.00,-0.00,55.39,-12.66,-22.90,0
10282,0.20,1.01,-0.01,46.67,-19.02,-20.99,0
10292,0.20,1.02,-0.02,38.40,-22.48,-20.28,0
10302,0.20,1.01,-0.04,31.50,-20.25,-20.12,0
10312,0.17,0.99,-0.08,26.36,-17.06,-20.67,0
10322,0.19,1.01,-0.09,22.27,-16.79,-21.62,0
10332,0.20,1.03,-0.12,19.54,-15.41,-20.56,0
10342,0.18,1.03,-0.15,19.18,-11.42,-18.18,0
10352,0.16,1.05,-0.15,20.36,-7.86,-16.52,0
10362,0.12,1.07,-0.17,21.48,-5.85,-15.96,0
10372,0.10,1.06,-0.19,22.98,-9.29,-16.52,0
10382,0.07,1.04,-0.19,24.57,-16.89,-16.94,0
10392,0.02,1.02,-0.20,25.64,-24.95,-17.46,0
10402,-0.01,1.01,-0.20,26.01,-31.98,-19.15,0
10412,-0.03,1.01,-0.20,26.36,-34.95,-21.06,0
10422,-0.05,1.02,-0.19,26.40,-34.76,-23.47,0
10432,-0.05,1.02,-0.20,26.43,-35.18,-26.49,0
10442,-0.03,1.01,-0.20,27.53,-37.98,-29.13,0
10452,-0.01,0.99,-0.19,29.69,-42.47,-31.21,0
10462,0.01,0.98,-0.17,30.83,-48.03,-33.05,0
10472,0.03,0.97,-0.14,29.76,-52.79,-35.30,0
10482,0.07,0.96,-0.14,26.76,-56.36,-37.87,0
10492,0.12,0.96,-0.15,23.07,-58.63,-39.44,0
10502,0.15,0.97,-0.16,19.98,-58.00,-39.84,0
10512,0.17,0.98,-0.17,17.72,-53.89,-39.95,0
10522,0.19,0.99,-0.19,15.84,-50.24,-39.79,0
10532,0.21,1.00,-0.21,13.83,-49.78,-39.61,0
10542,0.23,1.01,-0.23,11.98,-51.89,-38.95,0
10552,0.25,1.01,-0.25,10.02,-57.33,-37.55,0
10562,0.27,1.01,-0.27,8.09,-65.21,-35.53,0
10572,0.28,1.02,-0.28,7.22,-68.50,-32.92,0
10582,0.28,1.07,-0.27,7.81,-63.41,-30.45,0
10592,0.28,1.18,-0.25,8.53,-52.94,-28.20,0
10602,0.30,1.26,-0.24,9.14,-40.47,-26.05,0
10612,0.36,1.30,-0.21,10.18,-26.61,-23.24,0
10622,0.42,1.30,-0.16,11.56,-9.56,-18.31,0
10632,0.45,1.31,-0.11,12.44,11.50,-10.80,0
10642,0.45,1.35,-0.07,12.94,33.80,-1.78,0
10652,0.44,1.37,-0.04,12.79,53.75,7.18,0
10662,0.43,1.33,-0.00,11.98,67.72,15.32,0
10672,0.41,1.25,0.02,10.77,73.58,22.78,0
10682,0.42,1.19,0.04,9.52,71.68,30.50,0
10692,0.27,1.24,1.01,5.27,24.85,38.08,0
10702,0.57,1.30,1.82,-57.42,-208.37,44.50,0
10712,0.71,1.13,0.70,-134.56,-250.14,63.98,0
10722,0.63,0.96,0.06,-142.44,-245.50,90.27,0
10732,0.52,0.93,0.01,-109.67,-162.48,106.89,0
10742,0.43,1.02,0.12,-79.37,-15.37,114.40,0
10752,0.28,1.18,0.20,-68.48,72.50,120.73,0
10762,-0.01,1.33,0.13,-72.03,108.96,126.92,0
10772,-0.25,1.39,-0.06,-77.43,122.15,124.56,0
10782,-0.36,1.45,-0.28,-79.54,108.15,111.87,0
10792,-0.42,1.57,-0.43,-79.37,69.05,94.76,0
10802,-0.47,1.67,-0.48,-78.57,18.16,76.48,0
10812,-0.49,1.70,-0.52,-80.56,-41.27,57.50,0
10822,-0.46,1.71,-0.53,-85.14,-114.99,40.54,0
10832,-0.34,1.64,-0.47,-92.28,-177.11,28.69,0
10842,-0.19,1.51,-0.52,-99.59,-206.43,25.70,0
10852,0.05,1.33,-0.69,-97.43,-203.36,30.53,0
10862,0.30,1.09,-0.90,-75.75,-155.63,43.24,0
10872,0.30,0.88,-0.91,-31.78,-97.22,61.14,0
10882,0.14,0.80,-0.59,16.53,-76.38,72.71,0
10892,0.01,0.80,-0.16,41.82,-90.25,76.93,0
10902,-0.12,0.84,0.18,39.31,-117.43,78.50,0
10912,-0.12,0.89,0.32,17.37,-143.77,78.21,0
10922,-0.04,0.92,0.24,-5.47,-142.40,77.37,0
10932,-0.06,0.96,0.21,-16.25,-99.05,71.40,0
10942,-0.07,1.00,0.16,-20.89,-36.44,59.21,0
10952,-0.15,1.03,0.07,-21.99,26.08,45.86,0
10962,-0.20,1.02,-0.02,-21.95,70.59,32.56,0
10972,-0.19,0.96,-0.11,-21.15,91.91,20.56,0
10982,-0.12,0.91,-0.13,-19.53,98.73,10.78,0
10992,-0.04,0.82,-0.13,-18.70,98.73,4.17,0
11002,0.07,0.71,-0.13,-18.91,91.76,2.68,0
11012,0.05,0.66,-0.15,-19.74,79.24,5.68,0
11022,-0.02,0.65,-0.18,-19.05,66.16,7.08,0
11032,-0.04,0.66,-0.20,-16.00,52.64,5.59,0
11042,-0.01,0.66,-0.17,-11.69,38.53,2.77,0
11052,0.04,0.70,-0.12,-7.83,28.19,-0.63,0
11062,0.09,0.77,-0.10,-4.60,24.50,-4.95,0
11072,0.13,0.84,-0.13,-1.19,24.05,-10.76,0
11082,0.21,0.88,-0.13,2.79,23.12,-17.15,0
11092,0.32,0.90,-0.06,5.79,25.66,-20.88,0
11102,0.44,0.92,0.01,6.50,32.45,-20.75,0
11112,0.63,0.96,0.10,5.82,38.58,-16.22,0
11122,0.73,1.01,0.23,2.85,43.67,-5.79,0
11132,0.79,1.06,0.26,-3.06,42.21,6.74,0
11142,0.80,1.11,0.20,-6.63,36.31,15.97,0
11152,0.82,1.12,0.07,-1.73,29.73,16.24,0
11162,0.74,1.08,0.02,13.29,29.76,5.76,0
11172,0.62,1.01,0.02,30.44,36.56,-15.38,0
11182,0.55,0.92,0.01,44.91,39.83,-39.53,0
11192,0.49,0.83,0.03,56.07,38.71,-57.70,0
11202,0.42,0.77,0.03,60.80,38.42,-69.44,0
11212,0.41,0.76,-0.01,57.56,41.76,-75.44,0
11222,0.47,0.78,-0.04,48.09,43.75,-73.07,0
11232,0.48,1.04,0.07,35.95,39.73,-61.18,0
11242,0.34,1.54,0.45,11.19,26.56,-44.45,0
11252,0.28,1.90,0.39,-31.05,-2.50,-30.30,0
11262,0.20,2.00,0.24,-51.09,-36.30,-23.93,0
11272,0.18,1.97,0.08,-39.96,-42.27,-26.07,0
11282,0.01,1.52,0.10,-16.74,-5.59,-31.93,0
11292,-0.14,1.04,0.03,-1.44,33.54,-39.82,0
11302,-0.15,0.83,-0.13,15.92,52.96,-41.05,0
11312,-0.25,0.71,-0.20,37.56,54.11,-32.84,0
11322,-0.40,0.67,-0.18,50.99,46.91,-22.82,0
11332,-0.65,0.64,-0.13,48.58,39.95,-21.41,0
11342,-0.74,0.64,-0.09,31.53,19.84,-37.45,0
11352,-0.51,0.71,-0.21,10.05,-0.63,-58.95,0
11362,-0.32,0.81,-0.33,1.50,-9.22,-67.17,0
11372,-0.30,0.92,-0.37,5.39,-2.33,-66.93,0
11382,-0.26,0.98,-0.39,14.15,20.24,-69.41,0
11392,-0.11,1.03,-0.38,24.94,57.42,-72.51,0
11402,0.01,1.05,-0.35,34.80,98.95,-70.63,0
11412,0.13,1.06,-0.33,42.92,133.65,-64.04,0
11422,0.18,1.02,-0.29,49.00,155.74,-52.63,0
11432,0.18,1.00,-0.27,52.35,163.24,-39.85,0
11442,0.18,0.99,-0.25,52.86,160.41,-28.61,0
11452,0.22,0.99,-0.25,50.79,154.35,-19.79,0
11462,0.27,1.02,-0.27,49.00,154.93,-12.82,0
11472,0.31,1.06,-0.27,49.26,163.23,-6.70,0
11482,0.27,1.10,-0.24,49.94,173.35,-2.30,0
11492,0.20,1.14,-0.21,49.61,171.85,-1.76,0
11502,0.14,1.20,-0.22,48.52,153.27,-4.79,0
11512,0.04,1.21,-0.28,52.03,119.24,-13.00,0
11522,0.00,1.16,-0.21,62.85,56.62,-26.95,0
11532,0.10,1.12,-0.08,69.15,-7.23,-38.63,0
11542,0.17,1.10,-0.01,64.44,-36.25,-43.85,0
11552,0.20,1.07,-0.00,54.55,-39.29,-45.09,0
11562,0.25,1.01,-0.05,45.18,-35.80,-42.63,0
11572,0.27,0.97,-0.08,38.77,-33.46,-37.77,0
11582,0.27,0.96,-0.09,34.79,-31.44,-32.86,0
11592,0.26,0.96,-0.10,30.58,-30.82,-29.06,0
11602,0.25,0.95,-0.12,26.20,-30.52,-26.49,0
11612,0.26,0.95,-0.12,22.02,-29.39,-25.11,0
11622,0.29,0.98,-0.15,18.26,-26.11,-22.54,0
11632,0.27,0.98,-0.19,17.54,-20.47,-18.43,0
11642,0.22,0.99,-0.18,20.24,-15.88,-15.66,0
11652,0.20,1.01,-0.16,23.16,-13.18,-15.37,0
11662,0.17,1.03,-0.16,24.74,-11.27,-16.37,0
11672,0.15,1.05,-0.16,25.32,-10.73,-18.50,0
11682,0.14,1.04,-0.18,25.74,-11.24,-19.89,0
11692,0.10,1.03,-0.19,25.31,-15.46,-20.17,0
11702,0.07,1.02,-0.20,23.63,-22.42,-20.69,0
11712,0.05,1.01,-0.22,21.63,-25.98,-21.89,0
11722,0.04,1.04,-0.22,20.09,-29.13,-24.77,0
11732,0.04,1.03,-0.24,18.82,-48.41,-25.45,0
11742,0.01,1.00,-0.26,19.23,-64.02,-25.99,0
11752,0.02,0.98,-0.25,22.28,-75.02,-28.32,0
11762,0.03,0.96,-0.22,25.92,-79.00,-31.03,0
11772,0.06,0.97,-0.18,28.93,-76.18,-34.61,0
11782,0.11,0.99,-0.14,29.95,-67.11,-38.66,0
11792,0.16,1.01,-0.12,28.47,-53.90,-41.38,0
11802,0.20,1.03,-0.13,25.58,-40.79,-43.18,0
11812,0.24,1.03,-0.13,22.88,-31.60,-44.43,0
11822,0.29,1.04,-0.12,19.84,-25.05,-45.10,0
11832,0.35,1.05,-0.12,16.53,-20.34,-43.90,0
11842,0.39,1.08,-0.12,12.96,-16.08,-40.89,0
11852,0.43,1.11,-0.13,9.56,-12.44,-37.08,0
11862,0.49,1.20,-0.15,6.85,-9.12,-31.98,0
11872,0.59,1.33,-0.14,6.56,-0.21,-24.05,0
11882,0.68,1.42,-0.12,8.70,16.92,-12.44,0
11892,0.72,1.43,-0.08,12.98,37.27,1.34,0
11902,0.72,1.38,-0.04,18.29,52.98,14.44,0
11912,0.66,1.36,0.25,24.09,49.03,25.88,0
11922,0.67,1.43,1.62,-1.95,-67.26,37.62,0
11932,0.81,1.34,1.19,-88.17,-250.14,56.16,0
11942,0.80,1.16,0.25,-136.15,-250.14,78.05,0
11952,0.73,1.01,0.04,-126.24,-219.51,95.77,0
11962,0.66,0.95,0.24,-98.69,-119.93,109.37,0
11972,0.52,1.02,0.38,-84.48,-35.76,124.47,0
11982,0.25,1.24,0.35,-87.45,27.56,139.89,0
11992,0.00,1.40,0.20,-96.62,73.65,150.41,0
12002,-0.19,1.43,-0.09,-104.44,89.95,148.40,0
12012,-0.31,1.55,-0.36,-104.76,72.15,135.69,0
12022,-0.45,1.69,-0.50,-96.46,41.15,118.60,0
12032,-0.59,1.83,-0.52,-84.25,12.79,95.02,0
12042,-0.70,1.91,-0.52,-76.80,-37.40,68.18,0
12052,-0.74,1.90,-0.54,-76.69,-113.85,39.30,0
12062,-0.67,1.80,-0.42,-82.24,-186.91,14.18,0
12072,-0.48,1.60,-0.36,-90.72,-233.85,1.56,0
12082,-0.29,1.33,-0.42,-93.69,-250.14,3.07,0
12092,-0.07,1.01,-0.54,-78.05,-244.00,15.06,0
12102,0.11,0.76,-0.61,-40.58,-189.29,32.76,0
12112,0.12,0.69,-0.52,3.81,-100.81,46.96,0
12122,0.04,0.70,-0.23,36.00,-42.30,52.60,0
12132,0.07,0.74,0.04,44.71,-35.22,52.92,0
12142,0.10,0.76,0.31,32.92,-49.85,56.27,0
12152,0.04,0.81,0.43,2.75,-64.93,60.06,0
12162,-0.02,0.90,0.18,-26.54,-51.16,58.21,0
12172,-0.08,0.99,0.08,-37.09,-6.55,50.65,0
12182,-0.11,1.01,0.04,-39.36,39.60,39.73,0
12192,-0.13,0.98,-0.02,-39.78,73.66,30.01,0
12202,-0.16,0.93,-0.07,-39.31,91.61,23.18,0
12212,-0.19,0.89,-0.15,-38.49,99.80,16.15,0
12222,-0.11,0.87,-0.23,-35.11,100.29,8.40,0
12232,0.04,0.79,-0.24,-29.44,92.48,6.92,0
12242,0.08,0.69,-0.23,-24.99,72.72,11.42,0
12252,0.10,0.62,-0.24,-20.97,47.42,16.40,0
12262,0.06,0.60,-0.21,-14.38,24.40,20.07,0
12272,0.01,0.62,-0.08,-7.66,5.14,19.27,0
12282,0.07,0.70,0.05,-5.11,-10.08,13.16,0
12292,0.19,0.83,0.15,-6.89,-13.50,4.89,0
12302,0.32,0.90,0.21,-12.11,-0.37,-3.55,0
12312,0.43,0.94,0.20,-18.53,25.70,-11.06,0
12322,0.48,0.99,0.19,-23.61,55.03,-16.37,0
12332,0.50,1.04,0.19,-26.59,75.60,-20.55,0
12342,0.65,1.09,0.15,-27.53,82.98,-21.52,0
12352,0.78,1.13,0.06,-23.56,77.04,-13.10,0
12362,0.65,1.05,-0.05,-12.38,62.73,-5.50,0
12372,0.55,0.99,-0.06,4.41,29.07,-8.63,0
12382,0.52,0.97,-0.02,20.89,-2.11,-19.25,0
12392,0.49,0.95,0.04,34.13,-12.77,-34.11,0
12402,0.43,0.89,0.08,42.60,-3.31,-49.15,0
12412,0.32,0.82,0.03,47.45,12.16,-59.60,0
12422,0.22,0.75,-0.04,49.00,22.25,-65.42,0
12432,0.12,0.69,-0.07,45.78,28.49,-67.76,0
12442,0.11,0.68,-0.05,37.95,29.48,-67.85,0
12452,0.07,0.92,0.31,28.04,17.34,-64.13,0
12462,0.24,1.49,0.72,-0.73,-25.37,-55.15,0
12472,0.50,1.97,0.51,-27.01,-59.63,-31.11,0
12482,0.29,2.00,0.44,-7.76,-36.48,-6.69,0
12492,-0.04,1.96,0.24,16.14,37.34,-8.69,0
12502,-0.17,1.68,0.06,17.82,93.64,-28.61,0
12512,-0.20,1.25,-0.14,12.85,94.45,-42.74,0
12522,-0.17,0.90,-0.21,15.51,71.96,-46.80,0
12532,-0.19,0.70,-0.17,18.43,47.08,-42.21,0
12542,-0.26,0.58,-0.19,16.19,25.34,-36.02,0
12552,-0.32,0.53,-0.22,11.89,17.86,-36.45,0
12562,-0.29,0.59,-0.24,5.95,19.37,-44.47,0
12572,-0.18,0.70,-0.34,0.80,28.27,-53.01,0
12582,-0.12,0.81,-0.43,4.06,42.34,-55.74,0
12592,-0.11,0.92,-0.48,14.64,56.85,-56.66,0
12602,-0.07,1.03,-0.48,28.54,73.89,-58.27,0
12612,-0.04,1.10,-0.48,41.50,90.18,-57.98,0
12622,0.05,1.15,-0.47,52.93,105.32,-56.21,0
12632,0.13,1.15,-0.43,62.77,124.33,-50.60,0
12642,0.14,1.12,-0.34,70.15,138.08,-41.60,0
12652,0.13,1.08,-0.24,71.60,134.40,-32.48,0
12662,0.13,1.05,-0.18,67.54,118.77,-24.41,0
12672,0.13,1.02,-0.13,61.36,99.75,-18.44,0
12682,0.15,1.03,-0.11,54.72,86.24,-15.51,0
12692,0.16,1.06,-0.11,49.76,80.56,-15.07,0
12702,0.12,1.09,-0.10,49.44,68.72,-16.76,0
12712,0.09,1.13,-0.08,53.42,42.16,-22.18,0
12722,0.09,1.13,-0.01,58.88,16.88,-28.24,0
12732,0.06,1.11,0.01,59.61,14.86,-31.29,0
12742,0.05,1.11,0.01,56.96,14.97,-32.66,0
12752,0.08,1.09,-0.01,52.17,13.72,-33.98,0
12762,0.13,1.07,-0.04,45.63,16.92,-34.60,0
12772,0.15,1.05,-0.10,39.35,17.11,-33.52,0
12782,0.17,1.03,-0.15,35.26,7.09,-32.12,0
12792,0.20,1.01,-0.17,33.06,-8.27,-31.02,0
12802,0.25,1.00,-0.15,30.86,-21.14,-29.53,0
12812,0.27,1.00,-0.14,27.58,-26.31,-27.95,0
12822,0.27,0.99,-0.14,23.08,-23.79,-27.24,0
12832,0.28,0.98,-0.16,18.74,-21.08,-27.60,0
12842,0.30,0.97,-0.19,17.68,-19.34,-27.02,0
12852,0.28,0.95,-0.21,21.28,-14.99,-23.95,0
12862,0.24,0.96,-0.19,27.34,-10.74,-20.82,0
12872,0.22,0.98,-0.16,31.95,-5.69,-18.97,0
12882,0.19,1.00,-0.15,33.98,0.73,-17.46,0
12892,0.16,1.01,-0.16,34.14,3.60,-17.15,0
12902,0.15,0.99,-0.16,33.73,-0.02,-17.34,0
12912,0.12,0.99,-0.16,32.92,-4.96,-16.04,0
12922,0.08,1.01,-0.17,31.99,-9.35,-14.52,0
12932,0.05,1.02,-0.18,31.69,-16.29,-14.18,0
12942,0.03,1.01,-0.18,32.66,-26.28,-15.50,0
12952,0.03,1.00,-0.16,33.75,-36.97,-18.60,0
12962,0.04,1.00,-0.15,33.44,-46.27,-23.02,0
12972,0.09,1.00,-0.14,32.22,-54.81,-27.89,0
12982,0.14,1.00,-0.12,30.49,-60.47,-31.79,0
12992,0.21,1.00,-0.08,27.43,-63.72,-34.92,0
13002,0.28,1.00,-0.04,22.02,-63.55,-37.17,0
13012,0.34,1.00,-0.00,14.37,-56.57,-38.16,0
13022,0.40,0.99,0.01,6.03,-46.40,-38.19,0
13032,0.46,0.98,-0.00,-1.89,-37.94,-36.83,0
13042,0.52,0.99,-0.05,-7.16,-31.18,-34.13,0
13052,0.62,1.06,-0.09,-7.71,-31.20,-29.29,0
13062,0.76,1.22,-0.11,-2.97,-38.66,-20.71,0
13072,0.95,1.39,-0.11,5.50,-41.04,-5.58,0
13082,1.05,1.48,-0.10,15.53,-28.59,16.33,0
13092,0.92,1.52,0.26,22.83,-15.00,40.92,0
13102,0.66,1.57,1.32,-3.02,-84.41,62.34,0
13112,0.71,1.44,1.21,-78.79,-237.47,80.88,0
13122,0.91,1.21,0.44,-132.14,-250.14,105.89,0
13132,0.88,1.07,0.15,-130.06,-247.79,136.52,0
13142,0.77,1.08,0.33,-105.00,-230.34,157.07,0
13152,0.62,1.17,0.57,-91.80,-192.59,166.46,0
13162,0.34,1.32,0.56,-94.30,-149.85,168.63,0
13172,0.08,1.51,0.40,-97.57,-89.79,164.43,0
13182,-0.06,1.54,0.11,-96.96,-17.94,160.66,0
13192,-0.30,1.58,-0.23,-90.25,42.05,155.11,0
13202,-0.58,1.73,-0.36,-77.73,58.35,138.12,0
13212,-0.85,1.93,-0.32,-66.59,35.56,108.56,0
13222,-0.98,2.00,-0.29,-63.25,-19.40,69.59,0
13232,-0.77,2.00,-0.37,-69.16,-91.53,31.69,0
13242,-0.54,1.93,-0.46,-75.98,-156.72,9.56,0
13252,-0.38,1.70,-0.42,-77.81,-198.43,3.45,0
13262,-0.22,1.42,-0.44,-72.96,-207.38,9.86,0
13272,-0.05,1.13,-0.53,-54.97,-186.60,26.95,0
13282,0.02,0.91,-0.51,-24.09,-135.68,48.69,0
13292,-0.09,0.77,-0.38,6.45,-74.97,63.04,0
13302,-0.19,0.71,-0.17,26.70,-42.79,63.79,0
13312,-0.20,0.69,0.02,32.63,-36.01,57.47,0
13322,-0.18,0.67,0.23,24.45,-34.90,49.44,0
13332,-0.19,0.65,0.19,5.24,-27.76,40.18,0
13342,-0.19,0.67,0.04,-9.13,-5.93,27.95,0
13352,-0.10,0.68,-0.04,-14.74,22.08,16.49,0
13362,-0.08,0.68,-0.08,-16.87,50.94,7.63,0
13372,-0.07,0.72,-0.12,-16.52,74.60,-1.17,0
13382,-0.07,0.75,-0.13,-13.85,86.05,-8.69,0
13392,-0.06,0.76,-0.09,-11.50,88.89,-15.27,0
13402,-0.00,0.75,-0.05,-11.15,93.28,-20.96,0
13412,0.13,0.71,-0.04,-11.46,99.62,-24.34,0
13422,0.31,0.67,-0.04,-10.72,103.70,-22.98,0
13432,0.37,0.69,-0.01,-9.92,99.61,-16.24,0
13442,0.27,0.74,-0.00,-10.27,81.71,-9.39,0
13452,0.18,0.78,0.01,-11.00,59.11,-9.40,0
13462,0.23,0.83,0.00,-10.97,37.94,-14.77,0
13472,0.31,0.88,0.03,-9.76,21.41,-19.05,0
13482,0.35,0.94,0.12,-11.38,17.25,-22.15,0
13492,0.42,1.01,0.18,-18.32,26.48,-25.56,0
13502,0.47,1.08,0.20,-26.66,42.06,-28.63,0
13512,0.47,1.10,0.21,-32.08,49.54,-30.92,0
13522,0.50,1.08,0.22,-33.20,45.92,-30.90,0
13532,0.60,1.17,0.20,-28.76,47.51,-24.76,0
13542,0.59,1.21,0.06,-18.46,48.85,-13.73,0
13552,0.49,1.06,-0.03,0.33,26.69,-11.62,0
13562,0.50,1.00,-0.01,18.83,-5.95,-16.82,0
13572,0.54,1.01,0.06,31.71,-25.85,-22.91,0
13582,0.54,1.01,0.13,40.43,-23.02,-29.00,0
13592,0.45,0.97,0.16,46.52,-3.12,-35.75,0
13602,0.36,0.93,0.10,50.66,21.32,-43.08,0
13612,0.28,0.88,0.04,52.98,40.45,-47.89,0
13622,0.25,0.88,0.02,50.28,50.24,-48.50,0
13632,0.27,1.07,0.08,41.37,47.30,-43.89,0
13642,0.15,1.43,0.46,20.83,28.48,-35.98,0
13652,0.21,1.66,0.41,-19.92,-8.46,-29.80,0
13662,0.24,1.77,0.12,-41.93,-22.82,-24.91,0
13672,0.12,1.75,0.01,-29.64,-9.58,-24.84,0
13682,0.04,1.42,0.00,-8.38,23.18,-31.69,0
13692,-0.07,1.03,-0.08,6.45,52.26,-39.62,0
13702,-0.09,0.87,-0.19,22.52,58.46,-42.64,0
13712,-0.13,0.82,-0.17,40.36,51.79,-39.95,0
13722,-0.23,0.81,-0.13,49.37,36.44,-34.20,0
13732,-0.35,0.77,-0.13,47.39,27.40,-30.77,0
13742,-0.39,0.80,-0.11,38.78,25.82,-34.40,0
13752,-0.34,0.89,-0.18,25.90,19.18,-43.31,0
13762,-0.24,0.97,-0.27,18.77,10.59,-48.51,0
13772,-0.23,1.02,-0.29,19.68,7.05,-48.98,0
13782,-0.23,1.06,-0.26,23.27,13.75,-50.80,0
13792,-0.17,1.07,-0.24,25.79,34.05,-53.73,0
13802,-0.07,1.04,-0.25,27.24,56.32,-53.01,0
13812,-0.00,0.97,-0.25,28.62,71.30,-48.00,0
13822,0.04,0.90,-0.24,28.56,77.52,-41.21,0
13832,0.07,0.89,-0.22,27.55,76.57,-33.80,0
13842,0.06,0.90,-0.20,25.28,72.14,-27.07,0
13852,0.08,0.94,-0.22,23.23,68.93,-22.98,0
13862,0.12,0.99,-0.25,22.94,74.19,-21.27,0
13872,0.18,1.04,-0.27,24.98,90.69,-20.89,0
13882,0.24,1.09,-0.30,29.55,116.76,-20.63,0
13892,0.28,1.13,-0.31,36.91,144.07,-19.22,0
13902,0.27,1.15,-0.33,45.63,161.03,-17.47,0
13912,0.27,1.15,-0.32,57.19,161.33,-17.57,0
13922,0.26,1.13,-0.31,69.89,143.14,-19.89,0
13932,0.28,1.10,-0.23,82.16,107.92,-23.34,0
13942,0.24,1.08,-0.09,87.89,67.54,-25.55,0
13952,0.14,1.07,0.14,81.96,23.89,-29.34,0
13962,0.09,1.07,0.29,60.53,-26.37,-36.20,0
13972,0.21,1.04,0.19,33.39,-65.44,-40.56,0
13982,0.28,0.98,0.02,16.27,-76.79,-35.98,0
13992,0.26,0.95,-0.11,12.04,-67.02,-27.91,0
14002,0.22,0.96,-0.15,15.58,-50.74,-21.34,0
14012,0.15,0.97,-0.15,21.13,-38.21,-17.35,0
14022,0.13,0.99,-0.14,25.31,-30.75,-16.56,0
14032,0.15,1.03,-0.13,27.48,-26.34,-16.17,0
14042,0.14,1.03,-0.13,27.98,-19.98,-15.46,0
14052,0.11,1.03,-0.14,27.85,-11.83,-15.90,0
14062,0.09,1.07,-0.15,27.63,-4.69,-17.15,0
14072,0.06,1.08,-0.17,26.34,-3.15,-19.49,0
14082,0.06,1.06,-0.17,24.78,-8.25,-22.55,0
14092,0.07,1.04,-0.17,22.98,-16.23,-25.18,0
14102,0.08,1.01,-0.17,21.43,-25.44,-26.93,0
14112,0.08,1.00,-0.18,21.82,-33.28,-27.97,0
14122,0.10,0.99,-0.17,23.77,-41.89,-28.29,0
14132,0.11,0.99,-0.15,26.30,-50.42,-27.82,0
14142,0.13,0.99,-0.12,27.95,-56.93,-27.79,0
14152,0.16,1.00,-0.10,28.44,-58.94,-28.90,0
14162,0.19,1.01,-0.09,27.81,-57.76,-30.68,0
14172,0.23,1.01,-0.08,25.84,-56.40,-32.35,0
14182,0.26,1.00,-0.08,23.34,-53.08,-33.23,0
14192,0.27,0.99,-0.08,20.41,-47.33,-34.09,0
14202,0.29,0.98,-0.09,17.05,-41.11,-35.59,0
14212,0.31,0.98,-0.11,14.05,-35.06,-36.96,0
14222,0.32,0.99,-0.14,11.52,-33.24,-37.84,0
14232,0.34,1.00,-0.16,9.11,-37.05,-38.70,0
14242,0.37,0.99,-0.17,6.89,-40.82,-38.60,0
14252,0.39,0.97,-0.19,5.24,-38.13,-37.26,0
14262,0.44,0.95,-0.22,5.57,-29.88,-33.91,0
14272,0.48,1.00,-0.24,7.91,-20.66,-27.27,0
14282,0.52,1.09,-0.22,10.21,-10.55,-17.06,0
14292,0.50,1.19,-0.20,11.88,6.27,-4.95,0
14302,0.50,1.19,-0.20,13.27,25.62,5.69,0
14312,0.47,1.27,-0.16,14.00,40.74,16.23,0
14322,0.48,1.33,-0.09,13.08,50.22,29.48,0
14332,0.52,1.41,-0.03,10.56,56.66,45.98,0
14342,0.53,1.46,0.01,7.01,59.08,63.26,0
14352,0.48,1.50,0.07,-10.31,13.50,77.48,0
14362,0.24,1.63,1.38,-96.44,-216.05,86.20,0
14372,0.29,1.56,1.67,-160.37,-250.14,94.67,0
14382,0.38,1.28,0.43,-148.70,-247.43,104.08,0
14392,0.41,1.07,-0.05,-107.34,-214.63,112.43,0
14402,0.39,0.96,0.02,-73.93,-97.86,118.73,0
14412,0.33,0.99,0.30,-65.37,-11.04,123.87,0
14422,0.13,1.16,0.43,-71.66,40.08,126.10,0
14432,-0.18,1.36,0.29,-78.35,70.34,118.25,0
14442,-0.41,1.43,0.01,-79.69,74.62,97.38,0
14452,-0.56,1.50,-0.17,-77.92,54.68,70.35,0
14462,-0.68,1.61,-0.27,-76.55,9.35,44.31,0
14472,-0.65,1.68,-0.36,-77.37,-46.37,24.79,0
14482,-0.54,1.69,-0.40,-81.09,-103.60,13.71,0
14492,-0.46,1.63,-0.43,-85.13,-151.43,9.00,0
14502,-0.32,1.50,-0.47,-84.28,-165.98,10.41,0
14512,-0.17,1.35,-0.45,-77.15,-150.94,17.13,0
14522,-0.01,1.17,-0.49,-60.33,-113.81,27.92,0
14532,0.17,0.97,-0.59,-31.94,-65.53,40.09,0
14542,0.25,0.84,-0.60,-1.89,-29.49,47.47,0
14552,0.16,0.80,-0.49,18.79,-24.19,46.85,0
14562,0.06,0.79,-0.32,26.11,-40.18,44.18,0
14572,0.05,0.78,-0.16,21.96,-58.60,44.54,0
14582,-0.02,0.78,-0.05,10.28,-70.96,43.05,0
14592,-0.14,0.81,0.03,-3.63,-73.79,36.87,0
14602,-0.17,0.84,0.02,-14.02,-62.79,28.97,0
14612,-0.17,0.86,-0.01,-17.65,-41.06,19.95,0
14622,-0.17,0.88,-0.08,-15.32,-12.16,10.40,0
14632,-0.17,0.87,-0.06,-11.78,17.44,0.81,0
14642,-0.17,0.85,-0.06,-8.27,39.10,-8.02,0
14652,-0.12,0.81,-0.05,-6.54,56.06,-14.33,0
14662,-0.03,0.75,-0.02,-6.11,69.76,-17.03,0
14672,0.03,0.71,-0.04,-4.88,73.37,-17.21,0
14682,0.05,0.71,-0.08,-2.43,71.50,-17.69,0
14692,0.07,0.72,-0.08,-0.69,63.05,-18.75,0
14702,0.04,0.76,-0.03,-1.12,49.65,-21.70,0
14712,0.04,0.79,0.06,-3.51,37.78,-25.44,0
14722,0.11,0.83,0.13,-6.29,31.12,-27.22,0
14732,0.25,0.89,0.19,-10.91,35.63,-26.35,0
14742,0.35,0.96,0.32,-18.11,47.84,-24.83,0
14752,0.51,1.04,0.32,-23.08,57.47,-19.11,0
14762,0.75,1.09,0.28,-23.33,69.56,-8.82,0
14772,0.95,1.14,0.20,-17.79,80.16,0.68,0
14782,0.91,1.17,0.10,-8.44,80.10,2.02,0
14792,0.83,1.13,0.03,1.92,70.85,-1.14,0
14802,0.69,1.10,0.02,15.31,48.72,-10.66,0
14812,0.51,1.12,-0.05,29.47,14.56,-27.51,0
14822,0.33,0.93,-0.14,38.82,-21.57,-45.10,0
14832,0.30,0.77,-0.16,44.08,-43.78,-55.34,0
14842,0.42,0.72,-0.14,44.03,-36.61,-53.89,0
14852,0.51,0.77,-0.05,32.79,-29.51,-43.32,0
14862,0.24,1.14,0.58,-15.18,-86.37,-36.82,0
14872,0.08,1.64,1.05,-58.49,-133.70,-30.38,0
14882,0.28,1.90,0.45,-33.59,-75.88,-18.18,0
14892,0.21,1.91,0.18,6.73,39.89,-12.63,0
14902,-0.07,1.61,0.12,24.53,124.14,-16.32,0
14912,-0.13,1.23,-0.02,31.11,155.39,-15.92,0
14922,-0.12,1.07,-0.20,32.41,154.37,-10.65,0
14932,-0.27,1.01,-0.17,21.56,115.37,-12.78,0
14942,-0.44,0.91,-0.16,6.59,60.53,-24.45,0
14952,-0.47,0.79,-0.19,-8.24,20.28,-40.02,0
14962,-0.42,0.74,-0.21,-20.94,-3.86,-52.53,0
14972,-0.24,0.75,-0.30,-25.69,-9.00,-56.49,0
14982,-0.14,0.82,-0.44,-18.50,-6.68,-57.76,0
14992,-0.17,0.92,-0.57,-1.76,0.02,-59.56,0
15002,-0.16,1.00,-0.61,17.62,11.33,-59.79,0
15012,-0.13,1.06,-0.54,34.04,26.26,-57.05,0
15022,-0.08,1.06,-0.45,46.99,44.74,-50.54,0
15032,-0.03,1.03,-0.38,56.73,61.44,-40.37,0
15042,-0.01,1.00,-0.28,59.73,72.18,-29.13,0
15052,-0.03,0.96,-0.15,55.56,76.85,-20.25,0
15062,-0.04,0.94,-0.09,49.63,77.40,-14.38,0
15072,-0.05,0.93,-0.10,45.26,78.24,-11.89,0
15082,-0.03,0.94,-0.11,43.13,82.11,-11.82,0
15092,-0.00,0.97,-0.11,42.73,89.63,-13.13,0
15102,0.03,1.02,-0.12,43.82,102.63,-14.62,0
15112,0.06,1.08,-0.14,46.59,115.82,-15.84,0
15122,0.08,1.14,-0.16,51.21,124.42,-17.63,0
15132,0.10,1.16,-0.18,57.21,126.81,-19.44,0
15142,0.14,1.16,-0.19,62.82,121.95,-20.26,0
15152,0.19,1.15,-0.17,63.95,109.90,-19.17,0
15162,0.22,1.13,-0.13,60.88,89.53,-17.47,0
15172,0.23,1.10,-0.11,56.40,55.76,-17.63,0
15182,0.24,1.07,-0.08,50.78,14.06,-19.13,0
15192,0.24,1.04,-0.04,43.19,-19.15,-22.69,0
15202,0.24,1.01,-0.00,35.27,-34.14,-26.29,0
15212,0.26,0.99,0.00,29.21,-36.85,-26.95,0
15222,0.28,0.98,-0.02,25.67,-35.92,-23.15,0
15232,0.28,0.98,-0.05,23.89,-34.90,-17.94,0
15242,0.23,0.98,-0.09,23.17,-32.83,-14.93,0
15252,0.21,1.00,-0.10,22.47,-27.53,-12.44,0
15262,0.21,1.02,-0.10,20.44,-20.19,-10.06,0
15272,0.18,1.03,-0.10,17.27,-15.43,-9.69,0
15282,0.14,1.06,-0.11,13.85,-14.85,-11.31,0
15292,0.12,1.08,-0.14,11.97,-17.30,-13.04,0
15302,0.12,1.08,-0.17,10.89,-21.90,-13.76,0
15312,0.10,1.05,-0.17,9.34,-28.28,-13.76,0
15322,0.08,1.02,-0.18,8.80,-36.65,-13.87,0
15332,0.05,0.99,-0.20,10.76,-45.49,-14.78,0
15342,0.04,0.98,-0.21,15.01,-49.56,-15.62,0
15352,0.04,0.98,-0.21,20.97,-48.46,-15.47,0
15362,0.05,0.99,-0.20,26.92,-45.14,-14.66,0
15372,0.07,1.00,-0.17,31.07,-40.23,-15.06,0
15382,0.05,1.00,-0.14,32.04,-41.92,-17.02,0
15392,0.06,1.00,-0.11,29.60,-48.05,-19.17,0
15402,0.09,1.02,-0.09,24.05,-53.04,-21.14,0
15412,0.13,1.02,-0.07,16.73,-53.92,-23.05,0
15422,0.16,1.03,-0.07,8.77,-50.92,-25.32,0
15432,0.19,1.04,-0.11,2.05,-46.89,-28.18,0
15442,0.20,1.07,-0.17,-1.95,-46.17,-31.38,0
15452,0.22,1.08,-0.24,-3.48,-51.18,-34.50,0
15462,0.24,1.08,-0.28,-3.10,-59.92,-36.83,0
15472,0.27,1.06,-0.32,-1.96,-69.79,-37.42,0
15482,0.32,1.03,-0.34,0.23,-74.85,-35.73,0
15492,0.33,1.00,-0.34,3.12,-72.10,-32.92,0
15502,0.33,0.98,-0.31,5.21,-60.30,-29.02,0
15512,0.35,0.99,-0.25,5.78,-44.40,-22.73,0
15522,0.36,1.00,-0.21,6.08,-30.96,-14.69,0
15532,0.37,1.01,-0.17,6.44,-22.95,-5.55,0
15542,0.36,1.03,-0.14,6.06,-21.58,4.30,0
15552,0.36,1.10,-0.12,7.63,-19.42,14.91,0
15562,0.37,1.21,-0.13,12.03,-13.01,27.03,0
15572,0.37,1.31,-0.09,16.37,-7.00,39.83,0
15582,0.36,1.39,-0.04,19.03,-2.89,50.84,0
15592,0.31,1.45,-0.00,19.10,-3.96,57.28,0
15602,0.19,1.44,0.11,3.89,-66.85,56.42,0
15612,-0.11,1.43,1.35,-67.65,-243.03,51.98,0
15622,0.16,1.34,1.48,-128.63,-250.14,61.56,0
15632,0.35,1.18,0.70,-141.09,-247.44,78.33,0
15642,0.33,1.02,0.32,-125.16,-216.34,89.69,0
15652,0.31,0.95,0.18,-99.98,-134.60,97.45,0
15662,0.29,1.02,0.17,-81.30,-63.16,105.30,0
15672,0.12,1.13,0.16,-71.78,-9.41,109.33,0
15682,-0.12,1.24,0.12,-67.64,27.53,104.76,0
15692,-0.39,1.35,0.02,-67.64,27.53,104.76,0
15702,-0.56,1.41,-0.10,-67.42,31.65,88.55,0
15712,-0.67,1.48,-0.14,-69.14,9.39,65.11,0
15722,-0.75,1.54,-0.20,-74.40,-33.28,39.40,0
15732,-0.71,1.57,-0.23,-82.05,-92.61,16.12,0
15742,-0.65,1.55,-0.26,-91.18,-149.73,1.31,0
15752,-0.58,1.46,-0.31,-97.60,-203.87,-4.10,0
15762,-0.49,1.31,-0.29,-96.84,-240.50,-2.11,0
15772,-0.39,1.12,-0.33,-87.55,-248.50,5.68,0
15782,-0.32,0.97,-0.37,-69.44,-230.68,16.32,0
15792,-0.28,0.88,-0.38,-46.80,-197.05,23.50,0
15802,-0.22,0.84,-0.37,-24.08,-157.77,23.77,0
15812,-0.15,0.84,-0.29,-3.03,-121.21,20.11,0
15822,-0.09,0.85,-0.15,11.96,-99.83,16.72,0
15832,-0.07,0.84,0.01,14.97,-102.47,14.89,0
15842,-0.02,0.84,0.11,6.27,-120.62,15.08,0
15852,-0.04,0.83,0.12,-8.15,-131.44,17.08,0
15862,-0.09,0.85,0.02,-19.54,-125.05,16.98,0
15872,-0.12,0.88,-0.07,-22.34,-102.72,12.90,0
15882,-0.14,0.92,-0.11,-19.26,-77.44,5.94,0
15892,-0.15,0.93,-0.12,-15.07,-56.91,-1.69,0
15902,-0.12,0.92,-0.13,-11.80,-41.78,-9.57,0
15912,-0.06,0.87,-0.10,-9.41,-28.89,-16.18,0
15922,0.07,0.83,-0.11,-8.65,-16.74,-18.57,0
15932,0.13,0.81,-0.14,-8.21,-9.94,-15.76,0
15942,0.15,0.81,-0.19,-7.14,-9.12,-11.95,0
15952,0.17,0.81,-0.26,-4.42,-12.67,-8.85,0
15962,0.18,0.82,-0.38,1.14,-22.49,-6.14,0
15972,0.21,0.80,-0.40,9.66,-35.76,-3.38,0
15982,0.23,0.78,-0.44,17.83,-49.18,0.26,0
15992,0.30,0.81,-0.45,25.92,-70.41,5.27,0
16002,0.30,0.89,-0.40,34.06,-87.53,10.92,0
16012,0.35,0.97,-0.35,41.32,-96.85,13.85,0
16022,0.47,1.03,-0.30,47.21,-102.08,15.57,0
16032,0.58,1.07,-0.20,50.37,-109.12,18.67,0
16042,0.64,1.07,-0.09,50.73,-116.40,22.82,0
16052,0.62,1.08,0.03,50.60,-121.54,24.95,0
16062,0.61,1.10,0.14,48.63,-128.98,22.22,0
16072,0.62,1.13,0.20,45.27,-146.26,15.87,0
16082,0.67,1.16,0.22,44.28,-167.89,6.46,0
16092,0.73,1.18,0.23,47.31,-175.63,-4.02,0
16102,0.59,1.22,0.46,50.25,-158.93,-15.46,0
16112,0.51,1.30,0.80,35.48,-157.56,-31.47,0
16122,0.45,1.43,0.73,4.42,-176.84,-44.48,0
16132,0.34,1.56,0.37,-12.91,-152.47,-53.54,0
16142,0.25,1.59,0.16,-5.50,-81.82,-59.05,0
16152,0.15,1.46,0.10,5.46,4.98,-60.21,0
16162,-0.01,1.21,0.03,7.65,84.56,-60.34,0
16172,-0.17,0.98,-0.03,2.66,135.26,-63.76,0
16182,-0.18,0.88,-0.07,-6.51,145.73,-69.64,0
16192,-0.19,0.81,-0.06,-19.95,121.72,-73.75,0
16202,-0.21,0.75,-0.05,-39.50,76.27,-74.46,0
16212,-0.20,0.75,-0.10,-62.22,15.94,-70.36,0
16222,-0.18,0.80,-0.23,-84.12,-54.17,-61.12,0
16232,-0.23,0.89,-0.41,-98.70,-120.37,-49.39,0
16242,-0.27,1.00,-0.60,-99.15,-165.91,-40.58,0
16252,-0.20,1.07,-0.81,-79.45,-176.23,-34.96,0
16262,-0.15,1.11,-0.85,-35.66,-149.54,-27.40,0
16272,-0.17,1.12,-0.68,15.94,-98.95,-20.79,0
16282,-0.16,1.07,-0.49,56.47,-42.05,-17.56,0
16292,-0.10,1.01,-0.35,81.11,4.76,-15.08,0
16302,-0.05,0.99,-0.27,95.15,39.66,-10.25,0
16312,-0.03,0.98,-0.19,102.32,63.26,-3.86,0
16322,-0.05,1.00,-0.13,102.27,76.99,2.63,0
16332,-0.08,1.02,-0.11,97.08,86.85,6.04,0
16342,-0.08,1.06,-0.10,88.36,88.92,6.17,0
16352,-0.07,1.09,-0.08,76.20,84.27,4.77,0
16362,-0.03,1.10,-0.07,60.15,76.99,2.38,0
16372,0.02,1.10,-0.10,42.47,69.01,0.02,0
16382,0.07,1.09,-0.15,25.81,60.27,-2.16,0
16392,0.09,1.08,-0.19,11.54,48.99,-4.95,0
16402,0.15,1.09,-0.23,-0.86,35.84,-7.29,0
16412,0.21,1.08,-0.31,-10.83,23.21,-6.44,0
16422,0.25,1.06,-0.37,-17.13,8.15,-3.56,0
16432,0.29,1.03,-0.42,-19.83,-10.09,0.66,0
16442,0.30,1.03,-0.47,-17.44,-24.58,6.00,0
16452,0.23,1.00,-0.54,-8.58,-41.82,7.42,0
16462,0.21,0.98,-0.51,6.73,-67.99,1.79,0
16472,0.27,0.95,-0.43,22.38,-102.65,-3.62,0
16482,0.32,0.93,-0.34,34.21,-132.15,-4.29,0
16492,0.31,0.94,-0.24,40.37,-147.43,-1.37,0
16502,0.30,0.97,-0.16,38.84,-155.53,2.87,0
16512,0.29,0.99,-0.11,31.33,-158.50,8.15,0
16522,0.26,1.03,-0.11,21.28,-155.43,13.67,0
16532,0.21,1.08,-0.13,12.21,-145.93,17.29,0
16542,0.16,1.10,-0.15,5.79,-132.45,16.93,0
16552,0.13,1.09,-0.17,2.03,-119.71,12.91,0
16562,0.13,1.09,-0.18,0.62,-110.88,7.08,0
16572,0.14,1.07,-0.16,0.22,-102.98,1.02,0
16582,0.19,1.05,-0.14,-0.85,-97.75,-3.18,0
16592,0.22,1.02,-0.12,-2.82,-94.89,-4.44,0
16602,0.24,1.01,-0.11,-5.65,-94.35,-4.15,0
16612,0.24,1.00,-0.13,-8.52,-97.50,-3.63,0
16622,0.25,0.99,-0.15,-10.08,-106.50,-2.99,0
16632,0.26,0.98,-0.16,-10.27,-115.54,-2.27,0
16642,0.25,0.97,-0.16,-10.73,-122.18,-2.37,0
16652,0.25,0.96,-0.16,-11.85,-129.31,-2.97,0
16662,0.27,0.97,-0.17,-13.50,-135.60,-3.25,0
16672,0.28,0.99,-0.17,-15.79,-140.18,-2.85,0
16682,0.28,1.01,-0.17,-18.46,-142.40,-2.37,0
16692,0.28,1.03,-0.19,-20.39,-141.60,-2.24,0
16702,0.28,1.03,-0.21,-20.95,-139.61,-2.57,0
16712,0.27,1.03,-0.22,-19.73,-137.40,-3.16,0
16722,0.27,1.03,-0.22,-16.68,-135.64,-3.45,0
16732,0.25,1.01,-0.21,-12.79,-132.32,-3.95,0
16742,0.23,0.99,-0.20,-8.65,-128.21,-5.27,0
16752,0.23,0.99,-0.20,-4.54,-123.98,-7.15,0
16762,0.25,0.99,-0.18,-0.24,-117.35,-8.11,0
16772,0.27,1.00,-0.16,2.37,-109.46,-7.98,0
16782,0.27,1.00,-0.12,2.73,-103.40,-6.70,0
16792,0.25,0.99,-0.10,0.62,-97.15,-5.27,0
16802,0.23,0.98,-0.10,-2.76,-94.34,-5.68,0
16812,0.27,0.98,-0.09,-6.29,-91.73,-6.81,0
16822,0.33,1.00,-0.09,-9.11,-86.40,-5.00,0
16832,0.37,1.03,-0.09,-11.14,-80.60,1.10,0
16842,0.38,1.05,-0.10,-12.60,-76.02,9.48,0
16852,0.39,1.08,-0.10,-12.79,-73.21,18.66,0
16862,0.39,1.12,-0.09,-11.66,-72.41,28.92,0
16872,0.37,1.18,-0.08,-9.18,-75.01,39.95,0
16882,0.36,1.23,-0.03,-5.37,-78.40,50.66,0
16892,0.35,1.29,0.02,-1.73,-80.21,61.90,0
16902,-0.10,1.55,1.16,-6.09,-122.92,72.15,0
16912,-0.02,1.73,1.90,-81.20,-250.14,76.02,0
16922,0.30,1.43,0.83,-157.36,-250.14,85.33,0
16932,0.37,1.18,0.21,-165.35,-247.66,99.49,0
16942,0.36,1.15,0.14,-137.17,-250.01,107.24,0
16952,0.34,1.21,0.19,-102.08,-241.07,107.50,0
16962,0.23,1.31,0.23,-80.66,-165.66,104.11,0
16972,0.02,1.39,0.11,-73.85,-92.13,97.19,0
16982,-0.29,1.49,-0.07,-69.78,-52.28,84.81,0
16992,-0.60,1.52,-0.23,-64.55,-35.21,65.03,0
17002,-0.72,1.49,-0.26,-61.32,-43.73,38.26,0
17012,-0.64,1.46,-0.25,-64.73,-85.60,12.19,0
17022,-0.51,1.40,-0.20,-72.11,-147.40,-1.79,0
17032,-0.36,1.27,-0.22,-78.56,-205.51,-1.92,0
17042,-0.21,1.06,-0.26,-73.14,-245.37,9.58,0
17052,-0.10,0.89,-0.24,-55.06,-250.14,28.54,0
17062,-0.03,0.85,-0.22,-33.02,-231.09,45.26,0
17072,0.08,0.91,-0.11,-13.15,-193.27,53.08,0
17082,0.19,0.98,0.05,-4.58,-169.78,55.53,0
17092,0.12,0.99,0.10,-6.62,-157.45,55.69,0
17102,-0.05,0.96,0.04,-10.83,-137.58,49.71,0
17112,-0.18,0.94,-0.05,-12.22,-106.10,37.23,0
17122,-0.18,0.92,-0.08,-11.99,-74.89,22.51,0
17132,-0.16,0.87,-0.09,-13.79,-52.36,11.13,0
17142,-0.15,0.81,-0.15,-17.61,-42.26,1.98,0
17152,-0.08,0.76,-0.21,-19.96,-40.86,-6.27,0
17162,0.01,0.72,-0.23,-19.05,-40.12,-10.85,0
17172,0.06,0.72,-0.24,-15.39,-39.77,-11.53,0
17182,0.07,0.78,-0.26,-9.30,-40.98,-11.43,0
17192,0.04,0.83,-0.23,-2.34,-43.47,-13.27,0
17202,0.02,0.84,-0.16,3.12,-43.92,-18.85,0
17212,0.04,0.82,-0.09,6.36,-39.92,-26.12,0
17222,0.10,0.78,-0.01,7.08,-32.25,-31.64,0
17232,0.15,0.77,0.06,4.99,-26.66,-34.14,0
17242,0.24,0.78,0.11,0.33,-27.63,-33.92,0
17252,0.40,0.80,0.11,-5.49,-34.88,-28.97,0
17262,0.45,0.85,0.13,-9.76,-41.46,-19.02,0
17272,0.38,0.92,0.11,-12.79,-38.53,-10.94,0
17282,0.29,1.01,0.01,-13.11,-29.28,-8.81,0
17292,0.26,1.10,0.01,-11.41,-17.39,-13.28,0
17302,0.40,1.15,0.05,-10.71,0.18,-19.00,0
17312,0.46,1.16,0.10,-12.24,17.64,-19.85,0
17322,0.45,1.15,0.11,-15.18,22.18,-19.92,0
17332,0.56,1.11,0.09,-17.02,10.56,-19.73,0
17342,0.70,1.07,0.03,-15.52,0.73,-15.08,0
17352,0.76,1.02,-0.02,-8.25,-2.49,-8.18,0
17362,0.79,0.96,-0.09,4.74,-11.96,-4.10,0
17372,0.77,0.92,-0.09,21.50,-33.86,-4.56,0
17382,0.72,0.89,-0.07,38.02,-57.57,-10.61,0
17392,0.66,0.91,-0.04,52.85,-71.91,-22.27,0
17402,0.63,0.91,-0.03,64.41,-73.76,-36.25,0
17412,0.59,0.88,0.03,69.98,-63.05,-47.32,0
17422,0.53,0.90,0.16,64.64,-51.28,-52.92,0
17432,0.30,1.19,0.51,45.21,-55.69,-53.53,0
17442,0.08,1.63,1.08,-4.57,-93.65,-55.16,0
17452,0.44,1.86,0.63,-73.01,-153.40,-53.41,0
17462,0.85,1.94,-0.21,-85.52,-124.97,-33.98,0
17472,0.52,1.92,-0.41,-43.40,18.14,-7.43,0
17482,-0.12,1.74,-0.22,-11.18,146.66,-2.15,0
17492,-0.37,1.39,-0.15,-6.89,171.86,-15.46,0
17502,-0.25,1.06,-0.24,-11.35,138.12,-26.31,0
17512,-0.21,0.75,-0.30,-9.35,93.18,-24.74,0
17522,-0.30,0.49,-0.27,0.20,45.05,-20.27,0
17532,-0.27,0.36,-0.18,13.77,0.17,-20.33,0
17542,-0.33,0.40,-0.05,16.27,-29.53,-20.49,0
17552,-0.44,0.51,-0.09,0.14,-51.27,-27.54,0
17562,-0.41,0.70,-0.22,-15.35,-74.70,-38.38,0
17572,-0.40,0.89,-0.27,-19.72,-91.47,-46.07,0
17582,-0.39,1.04,-0.30,-18.03,-90.27,-52.27,0
17592,-0.37,1.15,-0.30,-12.15,-66.43,-57.22,0
17602,-0.29,1.22,-0.29,-2.98,-31.38,-58.93,0
17612,-0.24,1.21,-0.29,7.14,11.18,-55.50,0
17622,-0.16,1.12,-0.28,16.56,50.60,-48.79,0
17632,-0.10,1.00,-0.24,23.16,82.09,-40.22,0
17642,-0.05,0.94,-0.21,26.57,102.05,-33.48,0
17652,-0.00,0.92,-0.23,28.20,108.69,-28.50,0
17662,0.03,0.95,-0.24,30.11,111.44,-24.21,0
17672,0.06,0.99,-0.26,33.18,116.79,-21.82,0
17682,0.06,1.03,-0.31,37.36,126.87,-22.19,0
17692,0.10,1.08,-0.36,44.27,146.28,-25.67,0
17702,0.18,1.11,-0.37,54.28,172.50,-29.13,0
17712,0.20,1.12,-0.30,63.21,191.31,-28.84,0
17722,0.18,1.11,-0.20,65.54,186.47,-25.89,0
17732,0.19,1.10,-0.16,61.96,163.70,-23.73,0
17742,0.19,1.10,-0.16,58.24,129.05,-23.56,0
17752,0.20,1.11,-0.17,58.65,79.23,-25.04,0
17762,0.25,1.08,-0.08,62.40,15.44,-27.50,0
17772,0.29,1.03,0.03,62.18,-37.52,-29.78,0
17782,0.34,1.00,0.12,54.60,-64.96,-30.00,0
17792,0.32,0.99,0.13,41.17,-70.11,-25.34,0
17802,0.26,0.99,0.05,28.47,-67.44,-20.03,0
17812,0.25,0.99,-0.01,20.55,-58.16,-17.56,0
17822,0.25,0.99,-0.06,16.57,-41.19,-16.80,0
17832,0.23,1.03,-0.10,15.30,-22.07,-16.45,0
17842,0.20,1.07,-0.13,15.61,-4.20,-16.56,0
17852,0.17,1.09,-0.15,16.06,7.18,-16.58,0
17862,0.11,1.08,-0.17,15.85,5.85,-16.50,0
17872,0.06,1.06,-0.17,14.18,-5.27,-17.76,0
17882,0.05,1.02,-0.17,11.11,-20.87,-19.60,0
17892,0.05,0.97,-0.16,7.00,-35.44,-20.98,0
17902,0.05,0.95,-0.15,3.10,-45.62,-22.21,0
17912,0.07,0.96,-0.15,1.16,-50.52,-23.28,0
17922,0.08,0.97,-0.14,0.92,-50.36,-25.31,0
17932,0.10,0.98,-0.13,0.66,-47.52,-28.98,0
17942,0.15,1.00,-0.13,-0.98,-44.24,-33.53,0
17952,0.21,1.02,-0.13,-4.17,-39.67,-37.29,0
17962,0.25,1.02,-0.16,-7.71,-34.24,-38.09,0
17972,0.25,1.01,-0.20,-10.07,-31.78,-36.90,0
17982,0.25,1.00,-0.23,-10.86,-35.01,-36.71,0
17992,0.26,0.99,-0.24,-9.85,-41.81,-37.24,0
18002,0.29,1.01,-0.23,-7.83,-48.66,-37.49,0
18012,0.34,1.01,-0.21,-6.88,-54.96,-35.84,0
18022,0.37,1.00,-0.20,-6.18,-54.23,-31.73,0
18032,0.39,1.02,-0.19,-5.08,-46.21,-26.27,0
18042,0.40,1.10,-0.18,-4.03,-36.56,-20.55,0
18052,0.42,1.18,-0.15,-3.29,-24.94,-14.41,0
18062,0.47,1.25,-0.10,-2.49,-10.82,-6.15,0
18072,0.51,1.32,-0.07,-0.15,0.06,6.17,0
18082,0.52,1.39,-0.04,3.78,7.68,21.98,0
18092,0.52,1.46,0.00,7.44,12.47,39.60,0
18102,0.47,1.50,0.03,10.51,8.79,58.37,0
18112,0.26,1.48,0.84,11.53,-19.92,72.53,0
18122,0.43,1.36,1.79,-46.79,-204.14,81.23,0
18132,0.49,1.18,0.73,-125.30,-250.14,95.95,0
18142,0.40,1.06,0.08,-135.26,-248.63,109.44,0
18152,0.34,0.99,0.01,-100.31,-226.40,115.05,0
18162,0.22,1.07,0.19,-62.24,-123.44,118.38,0
18172,-0.09,1.28,0.30,-44.69,-34.34,120.24,0
18182,-0.46,1.45,0.22,-45.64,9.29,115.58,0
18192,-0.68,1.48,0.02,-51.47,30.11,99.26,0
18202,-0.79,1.53,-0.17,-54.11,29.58,71.87,0
18212,-0.78,1.58,-0.24,-53.70,10.87,40.96,0
18222,-0.64,1.57,-0.26,-55.87,-25.57,18.10,0
18232,-0.44,1.46,-0.30,-62.29,-77.92,9.55,0
18242,-0.30,1.31,-0.36,-65.91,-133.09,16.34,0
18252,-0.23,1.17,-0.37,-60.47,-168.82,27.88,0
18262,-0.19,1.06,-0.37,-49.66,-178.92,39.62,0
18272,-0.11,0.95,-0.43,-35.05,-162.72,48.95,0
18282,-0.04,0.89,-0.46,-14.37,-124.17,53.94,0
18292,0.00,0.86,-0.38,8.47,-80.55,53.95,0
18302,0.03,0.84,-0.23,25.52,-49.15,50.22,0
18312,0.01,0.81,-0.03,30.19,-38.41,45.14,0
18322,0.02,0.78,0.14,19.40,-48.60,38.80,0
18332,0.07,0.76,0.11,-1.02,-64.07,34.34,0
18342,-0.00,0.79,-0.03,-15.77,-58.70,32.88,0
18352,-0.11,0.86,-0.11,-19.01,-37.17,29.18,0
18362,-0.19,0.94,-0.13,-15.67,-9.89,20.06,0
18372,-0.20,0.97,-0.12,-9.76,16.76,8.50,0
18382,-0.19,0.94,-0.11,-4.58,35.16,-1.58,0
18392,-0.12,0.87,-0.08,-1.93,47.85,-11.37,0
18402,-0.01,0.82,-0.06,-0.83,58.04,-17.82,0
18412,0.05,0.78,-0.06,-0.35,64.52,-19.24,0
18422,0.09,0.77,-0.07,-0.06,64.01,-17.85,0
18432,0.17,0.79,-0.08,1.16,57.14,-15.06,0
18442,0.19,0.84,-0.04,3.01,43.60,-10.71,0
18452,0.16,0.92,0.04,2.42,23.32,-7.69,0
18462,0.17,0.99,0.08,-0.48,-1.07,-7.60,0
18472,0.17,1.06,0.21,-3.69,-22.99,-8.68,0
18482,0.17,1.07,0.29,-10.18,-20.24,-13.31,0
18492,0.21,1.06,0.24,-16.62,1.26,-19.48,0
18502,0.29,1.05,0.17,-20.34,30.12,-23.52,0
18512,0.43,1.07,0.13,-21.73,60.40,-23.76,0
18522,0.42,1.06,0.09,-22.25,77.70,-20.21,0
18532,0.39,1.03,0.04,-20.39,66.38,-17.50,0
18542,0.47,1.02,0.00,-14.89,37.66,-16.11,0
18552,0.57,1.01,-0.01,-5.50,16.85,-12.40,0
18562,0.53,1.01,0.01,6.68,7.96,-7.55,0
18572,0.39,1.01,0.06,18.45,4.37,-6.67,0
18582,0.26,1.01,0.07,27.91,7.34,-12.94,0
18592,0.22,0.99,0.07,35.45,10.72,-25.71,0
18602,0.22,0.94,0.06,40.70,7.24,-38.21,0
18612,0.20,0.91,0.02,43.11,3.78,-46.56,0
18622,0.17,0.90,-0.02,43.28,6.67,-50.04,0
18632,0.15,0.87,-0.06,40.89,15.54,-49.81,0
18642,0.18,0.85,-0.07,35.05,28.92,-46.28,0
18652,0.14,0.93,0.00,24.30,41.22,-38.85,0
18662,-0.10,1.16,0.27,4.21,36.95,-32.15,0
18672,-0.16,1.48,0.36,-30.66,-9.45,-33.58,0
18682,0.03,1.76,0.03,-51.82,-67.96,-35.34,0
18692,0.14,1.92,-0.12,-31.99,-83.79,-30.84,0
18702,0.11,1.78,-0.05,3.48,-56.53,-29.04,0
18712,0.11,1.45,0.01,24.78,-8.97,-35.50,0
18722,0.14,1.20,-0.02,31.65,25.80,-37.24,0
18732,0.07,0.99,-0.10,36.50,42.34,-30.14,0
18742,0.00,0.79,-0.11,43.05,50.95,-22.61,0
18752,-0.04,0.67,-0.07,46.04,60.26,-17.26,0
18762,-0.08,0.63,-0.04,41.39,71.56,-14.78,0
18772,-0.14,0.64,-0.07,30.44,79.34,-14.65,0
18782,-0.20,0.69,-0.12,18.77,74.37,-17.98,0
18792,-0.19,0.79,-0.16,9.15,59.06,-23.84,0
18802,-0.16,0.92,-0.21,1.21,51.18,-28.82,0
18812,-0.12,1.02,-0.28,-4.33,56.63,-32.47,0
18822,-0.10,1.09,-0.37,-5.83,65.87,-35.04,0
18832,-0.04,1.14,-0.39,-3.97,74.46,-37.10,0
18842,0.02,1.14,-0.43,-1.53,82.15,-36.03,0
18852,0.04,1.11,-0.48,2.44,79.76,-31.91,0
18862,0.08,1.03,-0.48,8.67,64.56,-28.10,0
18872,0.14,0.98,-0.45,15.85,50.91,-24.08,0
18882,0.16,0.95,-0.43,23.39,49.29,-19.73,0
18892,0.13,0.97,-0.41,31.63,52.88,-17.17,0
18902,0.10,1.03,-0.36,40.02,49.63,-17.18,0
18912,0.05,1.09,-0.32,47.32,40.95,-19.42,0
18922,0.05,1.12,-0.27,53.92,30.50,-24.11,0
18932,0.06,1.11,-0.20,57.70,20.58,-29.27,0
18942,0.10,1.08,-0.12,57.09,11.54,-33.24,0
18952,0.15,1.04,-0.07,52.22,3.31,-34.28,0
18962,0.19,1.00,-0.06,45.55,-2.63,-32.27,0
18972,0.21,0.98,-0.05,39.69,-7.40,-29.47,0
18982,0.21,0.99,-0.04,34.08,-10.67,-26.65,0
18992,0.21,0.98,-0.05,29.08,-11.49,-24.34,0
19002,0.20,0.96,-0.09,26.16,-11.17,-22.78,0
19012,0.20,0.96,-0.11,26.07,-12.72,-21.44,0
19022,0.23,1.01,-0.11,27.00,-11.70,-19.18,0
19032,0.22,1.01,-0.13,28.17,-4.48,-16.23,0
19042,0.19,1.00,-0.12,28.93,-0.52,-14.77,0
19052,0.17,1.03,-0.10,26.72,-2.09,-15.44,0
19062,0.17,1.08,-0.11,21.74,-2.79,-17.34,0
19072,0.17,1.11,-0.14,15.81,-4.21,-18.40,0
19082,0.15,1.10,-0.18,11.26,-10.21,-18.05,0
19092,0.13,1.07,-0.22,8.83,-20.05,-17.08,0
19102,0.11,1.04,-0.24,9.00,-26.75,-15.80,0
19112,0.08,1.03,-0.24,11.34,-26.97,-14.84,0
19122,0.05,1.02,-0.24,15.41,-23.31,-14.85,0
19132,0.03,1.01,-0.24,20.70,-19.79,-15.53,0
19142,0.03,1.01,-0.23,26.93,-17.62,-15.83,0
19152,0.02,1.01,-0.21,32.76,-16.21,-15.34,0
19162,0.02,1.02,-0.18,36.85,-15.61,-14.81,0
19172,0.01,1.02,-0.14,38.09,-16.94,-14.50,0
19182,-0.00,1.02,-0.09,35.50,-19.91,-15.56,0
19192,0.00,1.03,-0.07,28.95,-23.21,-18.76,0
19202,0.05,1.05,-0.08,20.12,-26.78,-22.69,0
19212,0.09,1.07,-0.10,11.50,-30.85,-25.37,0
19222,0.12,1.08,-0.13,4.56,-36.78,-27.50,0
19232,0.17,1.10,-0.15,-0.79,-45.55,-29.52,0
19242,0.24,1.10,-0.15,-4.46,-54.27,-30.07,0
19252,0.29,1.09,-0.14,-6.49,-57.44,-28.21,0
19262,0.35,1.09,-0.14,-6.53,-52.24,-24.59,0
19272,0.42,1.14,-0.13,-3.92,-39.40,-19.28,0
19282,0.47,1.22,-0.13,0.45,-21.76,-11.42,0
19292,0.51,1.27,-0.11,5.26,-2.05,-1.91,0
19302,0.51,1.27,-0.06,9.26,17.13,7.19,0
19312,0.50,1.21,-0.01,11.11,32.20,14.98,0
19322,0.45,1.14,0.05,10.31,38.44,21.00,0
19332,0.33,1.15,1.03,-1.11,-12.31,25.34,0
19342,0.51,1.12,1.20,-61.49,-217.82,29.92,0
19352,0.69,1.03,0.29,-111.75,-250.14,41.86,0
19362,0.72,0.98,-0.03,-112.47,-245.05,59.63,0
19372,0.64,0.96,0.01,-95.61,-183.33,75.50,0
19382,0.56,1.06,0.11,-78.85,-104.98,89.28,0
19392,0.37,1.19,0.21,-70.07,-64.77,104.21,0
19402,0.13,1.25,0.16,-71.47,-24.79,116.80,0
19412,-0.02,1.29,-0.00,-75.00,15.88,121.95,0
19422,-0.17,1.41,-0.19,-75.11,37.21,119.25,0
19432,-0.27,1.57,-0.38,-71.47,31.88,109.81,0
19442,-0.38,1.72,-0.54,-62.95,4.28,94.48,0
19452,-0.50,1.79,-0.54,-51.69,-41.55,73.07,0
19462,-0.54,1.77,-0.40,-46.66,-87.22,47.62,0
19472,-0.51,1.61,-0.33,-53.47,-139.56,23.11,0
19482,-0.39,1.40,-0.28,-65.51,-189.98,4.43,0
19492,-0.23,1.22,-0.25,-77.32,-210.33,-3.41,0
19502,-0.09,1.06,-0.36,-85.57,-210.23,-1.86,0
19512,0.01,0.87,-0.56,-79.92,-186.18,5.97,0
19522,0.07,0.68,-0.69,-52.52,-142.27,18.44,0
19532,0.01,0.57,-0.61,-7.98,-89.39,31.33,0
19542,-0.09,0.59,-0.43,32.66,-38.45,38.72,0
19552,-0.14,0.68,-0.30,57.20,1.55,39.34,0
19562,-0.18,0.77,-0.17,69.71,25.86,35.83,0
19572,-0.19,0.87,0.07,72.08,23.48,29.47,0
19582,-0.12,0.98,0.45,57.53,-8.32,22.24,0
19592,0.01,1.03,0.40,23.69,-53.23,18.00,0
19602,0.09,1.01,0.19,2.09,-42.21,14.91,0
19612,0.11,0.97,0.17,-1.98,13.52,10.09,0
19622,0.10,0.93,0.16,-3.93,60.31,5.56,0
19632,0.11,0.88,0.10,-7.99,89.75,3.39,0
19642,0.09,0.82,0.03,-12.50,107.27,3.24,0
19652,0.05,0.81,-0.04,-17.23,111.05,2.04,0
19662,0.06,0.83,-0.11,-20.73,102.24,-0.90,0
19672,0.02,0.87,-0.17,-22.23,88.88,-5.37,0
19682,0.01,0.90,-0.20,-22.16,76.92,-13.51,0
19692,0.05,0.89,-0.25,-20.39,62.06,-21.63,0
19702,0.11,0.87,-0.30,-17.50,43.81,-25.73,0
19712,0.10,0.84,-0.29,-13.22,32.88,-27.00,0
19722,0.13,0.86,-0.27,-7.28,31.65,-26.56,0
19732,0.20,0.91,-0.20,0.02,27.92,-21.56,0
19742,0.24,1.00,-0.00,4.24,14.42,-12.85,0
19752,0.27,1.09,0.18,0.44,-8.72,-4.08,0
19762,0.35,1.17,0.21,-6.07,-21.72,0.98,0
19772,0.45,1.20,0.20,-6.66,-15.74,5.08,0
19782,0.44,1.18,0.18,-1.22,-0.76,7.63,0
19792,0.44,1.14,0.12,6.56,12.63,5.85,0
19802,0.45,1.07,0.04,15.49,23.76,1.47,0
19812,0.47,1.03,-0.01,24.01,37.40,-4.14,0
19822,0.50,1.01,-0.05,30.51,45.04,-9.93,0
19832,0.56,0.99,-0.09,34.48,39.50,-13.63,0
19842,0.57,0.99,-0.11,37.13,28.10,-15.41,0
19852,0.50,0.99,-0.11,39.07,15.08,-18.16,0
19862,0.43,0.99,-0.12,40.80,2.53,-23.84,0
19872,0.37,0.97,-0.12,42.74,-4.31,-30.79,0
19882,0.33,0.92,-0.14,43.72,-3.93,-36.25,0
19892,0.29,0.85,-0.15,42.24,4.81,-38.42,0
19902,0.26,0.81,-0.14,36.19,21.90,-38.74,0
19912,0.13,0.96,0.00,26.01,33.18,-37.59,0
19922,-0.13,1.38,0.64,0.58,7.52,-37.94,0
19932,0.02,1.78,0.64,-55.48,-80.40,-41.92,0
19942,0.38,2.00,0.07,-80.05,-128.63,-37.87,0
19952,0.48,2.00,0.04,-45.14,-75.65,-25.34,0
19962,0.21,1.69,0.23,-12.43,26.18,-21.50,0
19972,-0.08,1.26,0.12,-6.51,87.31,-31.35,0
19982,-0.09,1.07,-0.15,-2.91,100.24,-38.08,0
19992,-0.11,0.87,-0.26,10.67,102.75,-31.19,0
20002,-0.28,0.65,-0.19,24.54,92.42,-20.73,0
20012,-0.42,0.53,-0.09,27.07,63.36,-17.85,0
20022,-0.47,0.54,-0.03,15.33,40.15,-23.63,0
20032,-0.43,0.59,-0.10,-5.11,16.11,-33.63,0
20042,-0.33,0.69,-0.22,-19.79,-4.72,-41.23,0
20052,-0.28,0.82,-0.29,-24.15,-14.97,-42.95,0
20062,-0.27,0.91,-0.32,-22.69,-11.77,-42.50,0
20072,-0.25,0.98,-0.35,-17.69,0.97,-43.80,0
20082,-0.19,1.05,-0.38,-9.33,17.22,-46.31,0
20092,-0.09,1.09,-0.39,2.72,36.31,-46.98,0
20102,-0.01,1.11,-0.36,16.79,59.46,-43.90,0
20112,0.03,1.10,-0.31,29.04,80.28,-38.73,0
20122,0.06,1.05,-0.26,36.88,93.51,-33.66,0
20132,0.10,1.00,-0.23,40.54,101.61,-29.92,0
20142,0.17,0.99,-0.21,41.50,110.31,-26.99,0
20152,0.23,1.02,-0.20,41.08,126.44,-23.18,0
20162,0.24,1.05,-0.22,39.59,150.55,-19.10,0
20172,0.24,1.09,-0.29,39.65,176.76,-17.13,0
20182,0.28,1.11,-0.34,44.56,200.63,-17.13,0
20192,0.33,1.09,-0.34,52.04,216.28,-15.92,0
20202,0.32,1.05,-0.32,57.89,212.54,-13.54,0
20212,0.28,1.04,-0.29,60.55,182.60,-12.59,0
20222,0.26,1.05,-0.26,61.26,134.20,-14.77,0
20232,0.24,1.03,-0.18,61.68,78.72,-17.92,0
20242,0.24,1.01,-0.12,62.75,28.10,-22.52,0
20252,0.27,1.02,-0.02,64.20,-15.11,-25.51,0
20262,0.24,1.02,0.09,60.78,-45.65,-24.50,0
20272,0.17,1.02,0.18,49.76,-63.98,-20.65,0
20282,0.12,1.02,0.18,33.40,-73.41,-17.36,0
20292,0.14,1.01,0.09,18.38,-73.53,-15.12,0
20302,0.19,1.02,-0.03,9.91,-61.83,-12.41,0
20312,0.21,1.03,-0.10,8.47,-41.00,-8.84,0
20322,0.15,1.03,-0.12,11.16,-18.90,-7.50,0
20332,0.10,1.04,-0.13,15.31,-1.69,-10.24,0
20342,0.10,1.06,-0.14,19.02,9.20,-14.02,0
20352,0.10,1.04,-0.15,20.70,13.66,-15.37,0
20362,0.08,1.03,-0.14,19.67,13.28,-14.96,0
20372,0.04,1.03,-0.12,14.91,10.60,-15.05,0
20382,0.03,1.01,-0.12,7.33,7.59,-16.31,0
20392,0.03,1.00,-0.14,-0.33,0.81,-17.90,0
20402,0.04,0.98,-0.16,-5.79,-12.21,-19.79,0
20412,0.06,0.97,-0.19,-8.32,-26.05,-22.29,0
20422,0.08,0.95,-0.22,-7.70,-37.72,-24.71,0
20432,0.11,0.96,-0.23,-4.33,-45.76,-26.60,0
20442,0.12,0.98,-0.23,-0.21,-50.76,-28.04,0
20452,0.12,1.00,-0.24,3.80,-52.09,-29.97,0
20462,0.12,1.01,-0.26,7.46,-49.79,-31.87,0
20472,0.13,1.03,-0.28,11.18,-46.43,-33.99,0
20482,0.15,1.04,-0.29,14.97,-42.64,-36.17,0
20492,0.16,1.04,-0.30,17.79,-39.40,-37.63,0
20502,0.19,1.03,-0.31,19.61,-38.27,-38.75,0
20512,0.22,1.02,-0.30,21.07,-35.49,-38.91,0
20522,0.27,1.00,-0.28,22.11,-31.11,-37.60,0
20532,0.32,1.02,-0.24,22.08,-23.76,-34.73,0
20542,0.38,1.12,-0.17,20.49,-10.57,-30.36,0
20552,0.44,1.25,-0.12,17.71,10.35,-24.62,0
20562,0.50,1.34,-0.09,15.36,34.08,-17.45,0
20572,0.55,1.36,-0.07,14.10,54.77,-8.63,0
20582,0.59,1.34,-0.01,13.76,70.77,1.66,0
20592,0.62,1.33,0.05,11.94,78.41,13.07,0
20602,0.62,1.33,0.03,8.59,76.79,25.01,0
20612,0.47,1.39,0.92,2.31,36.21,36.22,0
20622,0.56,1.34,1.54,-55.88,-181.60,45.38,0
20632,0.70,1.15,0.47,-120.66,-250.14,59.25,0
20642,0.72,0.98,-0.02,-124.17,-248.12,78.33,0
20652,0.58,0.87,0.10,-99.53,-186.84,96.86,0
20662,0.37,0.93,0.32,-78.02,-94.35,111.88,0
20672,0.15,1.14,0.41,-71.37,-41.95,124.38,0
20682,-0.05,1.29,0.33,-76.01,-0.89,134.02,0
20692,-0.26,1.35,0.13,-83.41,30.44,133.16,0
20702,-0.39,1.45,-0.15,-86.38,50.05,118.85,0
20712,-0.51,1.62,-0.40,-80.63,52.61,97.08,0
20722,-0.63,1.75,-0.51,-69.06,23.07,70.26,0
20732,-0.65,1.78,-0.50,-60.83,-32.66,41.97,0
20742,-0.58,1.72,-0.45,-62.27,-99.85,16.53,0
20752,-0.41,1.56,-0.36,-70.84,-153.99,-0.30,0
20762,-0.24,1.37,-0.32,-79.52,-174.21,-4.85,0
20772,-0.15,1.16,-0.37,-80.89,-175.07,-0.21,0
20782,-0.07,0.97,-0.46,-70.28,-167.67,9.87,0
20792,0.07,0.80,-0.54,-46.72,-141.83,21.55,0
20802,0.14,0.73,-0.52,-13.82,-94.87,33.36,0
20812,0.10,0.73,-0.33,15.50,-56.09,41.05,0
20822,0.04,0.76,-0.12,29.59,-42.84,42.78,0
20832,0.00,0.81,0.01,28.55,-43.15,41.18,0
20842,-0.02,0.86,0.12,17.77,-42.50,38.69,0
20852,-0.06,0.91,0.17,0.04,-45.12,35.24,0
20862,-0.01,0.95,0.07,-16.92,-41.18,29.55,0
20872,-0.00,0.95,-0.00,-23.58,-14.53,23.74,0
20882,-0.05,0.93,-0.00,-24.39,14.87,18.17,0
20892,-0.11,0.91,-0.04,-24.44,37.95,12.23,0
20902,-0.14,0.87,-0.11,-22.89,56.31,5.85,0
20912,-0.13,0.83,-0.17,-19.07,67.26,-0.45,0
20922,-0.07,0.78,-0.22,-14.14,68.02,-5.21,0
20932,0.06,0.73,-0.22,-9.35,58.87,-5.86,0
20942,0.06,0.70,-0.18,-6.01,43.18,-2.86,0
20952,0.04,0.69,-0.12,-4.76,21.39,-1.41,0
20962,0.07,0.74,-0.07,-4.57,0.86,-2.02,0
20972,0.12,0.82,-0.03,-3.28,-8.41,-3.30,0
20982,0.18,0.93,0.00,-1.63,-8.03,-6.27,0
20992,0.21,1.01,0.02,-0.60,-3.46,-10.96,0
21002,0.25,1.06,0.03,-0.57,8.12,-17.01,0
21012,0.27,1.07,0.05,-1.37,27.54,-22.47,0
21022,0.30,1.05,0.06,-3.60,46.22,-25.47,0
21032,0.35,1.03,0.01,-5.49,56.78,-25.47,0
21042,0.45,1.01,0.00,-4.52,55.78,-22.21,0
21052,0.53,1.00,0.03,-1.94,47.31,-15.46,0
21062,0.59,1.03,0.05,2.34,32.48,-8.22,0
21072,0.66,1.05,0.07,10.28,15.79,-2.11,0
21082,0.67,1.05,0.08,21.52,2.00,2.11,0
21092,0.59,1.04,0.06,32.27,-3.89,0.05,0
21102,0.52,1.04,0.02,41.41,-1.90,-11.11,0
21112,0.49,1.02,0.02,49.17,4.68,-26.37,0
21122,0.46,0.98,0.03,54.49,10.73,-38.50,0
21132,0.39,0.91,0.02,56.48,9.23,-46.12,0
21142,0.37,0.86,-0.00,54.92,6.51,-51.35,0
21152,0.40,0.85,-0.04,50.60,12.37,-52.20,0
21162,0.36,0.97,-0.02,43.92,24.51,-46.81,0
21172,0.10,1.35,0.44,27.95,26.33,-40.83,0
21182,0.14,1.82,0.80,-22.30,-25.05,-40.37,0
21192,0.39,2.00,0.35,-71.66,-90.10,-36.66,0
21202,0.42,2.00,0.06,-68.07,-89.83,-28.34,0
21212,0.30,1.72,0.09,-38.06,-27.37,-26.42,0
21222,0.01,1.12,0.10,-16.52,44.25,-32.69,0
21232,-0.03,0.88,-0.06,-1.30,83.27,-38.00,0
21242,-0.04,0.76,-0.20,18.28,101.68,-29.36,0
21252,-0.26,0.64,-0.19,36.91,105.05,-14.47,0
21262,-0.51,0.61,-0.12,41.18,84.70,-7.97,0
21272,-0.61,0.64,-0.07,29.79,55.92,-16.44,0
21282,-0.52,0.67,-0.15,8.79,20.17,-32.97,0
21292,-0.36,0.77,-0.27,-5.35,-1.45,-44.11,0
21302,-0.30,0.90,-0.34,-7.91,-1.08,-46.68,0
21312,-0.36,0.98,-0.37,-4.44,10.50,-47.44,0
21322,-0.27,1.01,-0.38,0.07,16.97,-51.16,0
21332,-0.16,1.05,-0.40,6.15,26.34,-52.38,0
21342,-0.13,1.08,-0.45,13.97,37.89,-50.20,0
21352,-0.01,1.10,-0.41,23.68,50.17,-46.94,0
21362,0.01,1.09,-0.33,30.94,63.26,-38.49,0
21372,-0.04,1.02,-0.27,33.19,66.41,-30.95,0
21382,-0.02,0.96,-0.24,32.12,64.37,-29.42,0
21392,0.07,0.94,-0.24,30.34,64.69,-29.28,0
21402,0.10,0.96,-0.26,30.18,76.85,-28.27,0
21412,0.12,1.01,-0.25,31.62,95.33,-27.47,0
21422,0.12,1.07,-0.27,34.15,112.16,-27.49,0
21432,0.12,1.11,-0.30,38.94,127.98,-29.22,0
21442,0.14,1.13,-0.32,46.15,139.76,-31.12,0
21452,0.18,1.11,-0.31,53.86,140.53,-31.46,0
21462,0.21,1.08,-0.29,58.35,126.67,-29.40,0
21472,0.24,1.06,-0.25,59.71,99.43,-24.72,0
21482,0.24,1.06,-0.23,58.57,66.82,-19.63,0
21492,0.24,1.05,-0.20,58.25,31.72,-18.00,0
21502,0.25,1.03,-0.12,59.10,-0.67,-18.45,0
21512,0.26,0.97,-0.06,57.88,-20.76,-20.19,0
21522,0.26,0.96,-0.04,55.00,-24.56,-22.63,0
21532,0.30,0.96,-0.01,51.52,-27.82,-23.18,0
21542,0.30,0.95,-0.01,47.62,-28.81,-21.15,0
21552,0.32,0.99,0.00,43.27,-28.01,-17.51,0
21562,0.29,1.02,0.01,37.89,-21.76,-13.47,0
21572,0.26,1.06,0.01,31.11,-13.45,-12.11,0
21582,0.25,1.10,-0.02,24.00,-7.69,-12.79,0
21592,0.23,1.11,-0.05,17.76,-5.54,-13.95,0
21602,0.22,1.08,-0.09,12.55,-7.42,-15.04,0
21612,0.22,1.04,-0.11,9.57,-14.48,-14.46,0
21622,0.18,1.00,-0.13,7.77,-21.73,-11.95,0
21632,0.13,1.00,-0.13,5.76,-27.98,-10.97,0
21642,0.12,1.00,-0.13,2.68,-32.40,-11.02,0
21652,0.10,0.99,-0.16,-0.08,-33.71,-10.64,0
21662,0.08,0.98,-0.19,-1.06,-35.50,-10.26,0
21672,0.06,0.96,-0.22,-0.05,-40.20,-10.55,0
21682,0.05,0.94,-0.23,2.60,-47.26,-11.60,0
21692,0.04,0.94,-0.24,6.32,-54.34,-13.02,0
21702,0.03,0.97,-0.24,10.42,-59.16,-14.52,0
21712,0.03,1.03,-0.25,13.47,-60.37,-16.73,0
21722,0.01,1.06,-0.27,16.05,-58.51,-20.52,0
21732,0.02,1.06,-0.29,19.49,-55.08,-25.95,0
21742,0.05,1.07,-0.29,23.11,-49.07,-31.30,0
21752,0.07,1.08,-0.28,25.73,-40.37,-35.40,0
21762,0.11,1.09,-0.24,27.00,-31.60,-38.29,0
21772,0.18,1.09,-0.19,26.27,-21.86,-39.72,0
21782,0.26,1.10,-0.13,23.43,-11.33,-38.89,0
21792,0.29,1.09,-0.09,19.47,-1.79,-35.85,0
21802,0.33,1.11,-0.07,15.93,8.32,-32.97,0
21812,0.42,1.20,-0.06,14.14,17.96,-29.07,0
21822,0.50,1.31,-0.05,15.42,27.42,-21.92,0
21832,0.55,1.36,-0.04,18.71,36.31,-12.27,0
21842,0.56,1.37,-0.02,22.60,46.45,-2.60,0
21852,0.53,1.34,0.06,25.79,51.35,5.37,0
21862,0.49,1.41,1.16,15.87,3.69,11.79,0
21872,0.63,1.42,1.52,-56.23,-201.58,22.61,0
21882,0.66,1.25,0.56,-127.98,-250.14,39.68,0
21892,0.66,1.06,0.11,-140.44,-247.09,57.41,0
21902,0.66,0.95,0.13,-120.12,-196.73,72.24,0
21912,0.73,0.93,0.34,-96.73,-112.21,87.15,0
21922,0.60,1.00,0.47,-90.15,-40.37,106.07,0
21932,0.26,1.16,0.37,-97.24,19.56,123.11,0
21942,0.07,1.32,0.16,-104.95,61.79,133.73,0
21952,-0.10,1.36,-0.12,-107.43,86.21,136.19,0
21962,-0.25,1.46,-0.38,-102.60,88.10,128.16,0
21972,-0.39,1.63,-0.59,-91.49,62.54,114.76,0
21982,-0.56,1.80,-0.64,-77.69,8.56,96.05,0
21992,-0.70,1.91,-0.59,-70.05,-65.18,70.79,0
22002,-0.78,1.94,-0.50,-73.40,-142.81,40.39,0
22012,-0.71,1.84,-0.39,-85.95,-205.98,12.55,0
22022,-0.55,1.64,-0.33,-101.07,-247.37,-3.70,0
22032,-0.33,1.36,-0.43,-109.92,-250.14,-6.65,0
22042,-0.11,1.01,-0.61,-97.82,-248.11,4.04,0
22052,0.04,0.73,-0.69,-55.74,-200.73,23.04,0
22062,0.04,0.59,-0.60,-3.41,-96.11,38.78,0
22072,-0.07,0.56,-0.37,35.03,-15.11,47.18,0
22082,-0.12,0.60,-0.16,50.45,8.64,48.90,0
22092,-0.10,0.68,0.02,46.39,-3.17,47.92,0
22102,-0.11,0.74,0.09,28.18,-22.81,45.11,0
22112,-0.08,0.77,0.07,8.83,-28.82,39.27,0
22122,-0.05,0.83,0.06,-3.12,-21.31,31.51,0
22132,-0.02,0.88,0.04,-9.75,-4.60,22.37,0
22142,-0.03,0.87,0.03,-11.94,19.84,14.53,0
22152,-0.08,0.90,0.04,-12.61,44.61,6.79,0
22162,-0.08,0.91,0.00,-13.80,62.45,-2.46,0
22172,-0.02,0.83,0.01,-14.18,82.71,-9.02,0
22182,0.07,0.77,-0.06,-16.20,98.32,-12.06,0
22192,0.29,0.75,-0.15,-16.84,96.14,-9.01,0
22202,0.29,0.72,-0.19,-16.24,74.21,2.60,0
22212,0.12,0.79,-0.13,-14.12,48.07,10.92,0
22222,0.07,0.90,-0.03,-13.56,25.52,10.61,0
22232,0.12,0.98,0.00,-15.83,9.85,7.24,0
22242,0.14,0.95,-0.00,-13.98,8.79,2.62,0
22252,0.23,0.76,-0.00,-13.75,11.40,-3.50,0
22262,0.29,0.96,-0.14,-15.75,24.40,-10.29,0
22272,0.32,1.06,-0.10,-7.43,47.78,-16.27,0
22282,0.34,0.98,-0.03,-1.37,54.75,-17.92,0
22292,0.35,0.95,0.09,3.86,38.08,-15.21,0
22302,0.39,1.00,0.23,7.35,18.20,-10.04,0
22312,0.40,1.06,0.25,7.80,7.22,-3.18,0
22322,0.40,1.08,0.18,10.67,2.66,2.47,0
22332,0.37,1.06,0.07,16.89,-7.27,3.68,0
22342,0.32,1.10,-0.03,25.62,-34.21,-3.95,0
22352,0.34,1.03,0.01,36.37,-46.87,-12.69,0
22362,0.34,0.94,0.02,42.36,-45.95,-19.34,0
22372,0.37,0.92,0.03,50.94,-25.77,-30.10,0
22382,0.45,0.91,0.08,61.08,2.15,-40.75,0
22392,0.49,0.93,0.13,65.92,24.85,-46.11,0
22402,0.50,1.08,0.21,60.92,31.45,-47.18,0
22412,0.36,1.30,0.43,45.58,17.50,-47.08,0
22422,0.25,1.64,0.64,10.96,-10.03,-48.17,0
22432,0.40,1.87,0.37,-31.09,-27.69,-46.43,0
22442,0.53,1.96,0.12,-45.23,-21.16,-39.28,0
22452,0.53,1.77,0.07,-34.87,13.42,-33.70,0
22462,0.32,1.26,0.06,-21.50,49.57,-33.10,0
22472,0.10,0.90,-0.07,-11.25,66.15,-38.19,0
22482,-0.01,0.77,-0.15,1.89,78.71,-42.50,0
22492,-0.10,0.68,-0.19,14.14,76.50,-42.23,0
22502,-0.29,0.64,-0.16,23.92,59.60,-40.79,0
22512,-0.38,0.66,-0.14,22.20,22.74,-47.95,0
22522,-0.20,0.82,-0.15,13.37,-11.73,-55.41,0
22532,-0.28,0.98,-0.21,4.49,-13.56,-52.20,0
22542,-0.41,1.07,-0.29,1.04,3.59,-58.74,0
22552,-0.32,1.14,-0.29,4.37,10.53,-72.66,0
22562,-0.19,1.15,-0.22,7.59,-2.09,-77.32,0
22572,-0.08,1.05,-0.20,8.26,-14.59,-72.56,0
22582,0.03,0.95,-0.21,8.76,-26.79,-63.02,0
22592,0.09,0.93,-0.23,9.66,-35.71,-51.33,0
22602,0.09,0.89,-0.21,12.55,-29.85,-40.62,0
22612,0.05,0.88,-0.17,13.15,-24.54,-32.40,0
22622,-0.01,0.94,-0.18,9.27,-35.82,-27.20,0
22632,-0.04,0.96,-0.20,7.34,-44.18,-26.83,0
22642,-0.00,0.97,-0.23,8.61,-42.66,-30.80,0
22652,0.08,0.97,-0.25,14.50,-29.94,-34.67,0
22662,0.16,0.99,-0.23,23.82,-2.05,-36.53,0
22672,0.19,1.03,-0.20,31.73,30.88,-34.92,0
22682,0.15,1.07,-0.17,37.94,63.64,-31.00,0
22692,0.06,1.08,-0.14,43.30,92.74,-26.28,0
22702,-0.01,1.07,-0.10,44.71,107.91,-24.63,0
22712,-0.01,1.09,-0.09,41.26,109.68,-26.58,0
22722,-0.01,1.08,-0.09,34.53,104.09,-27.89,0
22732,-0.04,1.06,-0.09,25.96,89.41,-29.84,0
22742,0.03,1.06,-0.16,15.46,55.20,-39.15,0
22752,0.15,1.07,-0.25,12.79,19.19,-48.21,0
22762,0.22,1.04,-0.25,19.32,-3.60,-47.76,0
22772,0.21,1.00,-0.25,26.02,-17.35,-39.02,0
22782,0.15,1.01,-0.23,33.70,-23.47,-31.16,0
22792,0.13,1.03,-0.18,41.24,-19.61,-26.86,0
22802,0.10,1.02,-0.13,45.89,-10.70,-24.04,0
22812,0.09,1.02,-0.08,47.57,-0.31,-23.11,0
22822,0.07,1.02,-0.05,46.64,10.71,-24.31,0
22832,0.05,1.03,-0.04,43.95,21.76,-27.53,0
22842,0.08,1.05,-0.06,39.53,27.98,-30.76,0
22852,0.06,1.02,-0.09,35.95,30.34,-31.27,0
22862,0.04,0.99,-0.11,33.56,26.33,-30.99,0
22872,0.04,1.00,-0.12,32.99,19.88,-29.28,0
22882,-0.03,1.00,-0.12,32.18,10.95,-25.79,0
22892,-0.07,0.97,-0.14,31.38,0.18,-25.29,0
22902,-0.07,0.96,-0.15,32.47,-5.07,-27.36,0
22912,-0.06,0.95,-0.15,34.73,-4.35,-29.21,0
22922,-0.05,0.95,-0.14,37.45,-1.47,-30.72,0
22932,-0.04,0.96,-0.11,38.12,-1.82,-32.02,0
22942,-0.04,0.99,-0.09,34.86,-8.72,-33.43,0
22952,-0.03,1.03,-0.10,29.21,-21.34,-35.12,0
22962,-0.01,1.05,-0.12,25.40,-32.24,-37.18,0
22972,-0.00,1.04,-0.12,23.90,-38.67,-39.79,0
22982,0.01,1.04,-0.11,21.34,-44.74,-42.47,0
22992,0.04,1.05,-0.10,17.47,-50.78,-45.08,0
23002,0.09,1.06,-0.11,13.53,-53.21,-46.45,0
23012,0.11,1.09,-0.11,9.39,-49.88,-45.94,0
23022,0.18,1.11,-0.14,4.50,-41.05,-46.98,0
23032,0.24,1.10,-0.18,3.46,-23.31,-47.97,0
23042,0.24,1.08,-0.17,4.24,-6.48,-47.61,0
23052,0.25,1.07,-0.16,2.45,2.00,-47.34,0
23062,0.25,1.06,-0.17,-0.53,6.10,-47.08,0
23072,0.27,1.05,-0.20,-2.24,6.83,-45.89,0
23082,0.29,1.12,-0.23,-2.15,7.18,-42.11,0
23092,0.27,1.29,-0.25,-0.34,11.44,-34.88,0
23102,0.21,1.45,-0.24,1.56,17.74,-27.24,0
23112,0.21,1.54,-0.22,6.06,26.06,-22.92,0
23122,0.34,1.56,-0.13,12.67,37.14,-18.62,0
23132,0.42,1.48,-0.01,15.33,51.58,-7.24,0
23142,0.40,1.36,0.07,10.93,61.32,7.56,0
23152,0.36,1.30,0.11,1.96,59.20,20.00,0
23162,0.36,1.22,0.06,-6.15,49.59,27.47,0
23172,0.45,1.11,-0.04,-2.13,34.24,30.13,0
23182,0.59,1.07,0.98,8.53,-26.18,34.71,0
23192,1.03,1.03,1.56,-32.69,-192.40,52.41,0
23202,0.93,0.91,0.76,-86.60,-222.58,85.74,0
23212,0.56,0.91,0.36,-102.82,-110.79,112.37,0
23222,0.25,1.08,0.18,-107.92,-17.23,126.71,0
23232,0.10,1.37,-0.01,-108.49,34.40,136.97,0
23242,-0.10,1.43,-0.10,-105.97,61.37,143.37,0
23252,-0.32,1.43,-0.18,-106.42,51.63,140.02,0
23262,-0.39,1.49,-0.27,-105.68,8.66,129.53,0
23272,-0.39,1.52,-0.37,-101.09,-47.54,121.24,0
23282,-0.47,1.62,-0.42,-96.35,-107.87,115.02,0
23292,-0.52,1.65,-0.39,-95.11,-164.18,107.24,0
23302,-0.54,1.57,-0.41,-96.55,-201.73,97.73,0
23312,-0.36,1.42,-0.66,-93.21,-223.79,89.11,0
23322,-0.16,1.26,-0.88,-69.70,-199.86,89.76,0
23332,-0.09,1.09,-0.96,-31.53,-143.95,93.35,0
23342,-0.16,1.01,-0.82,10.20,-101.42,88.15,0
23352,-0.13,0.99,-0.43,45.60,-85.69,75.57,0
23362,-0.06,1.05,-0.05,61.38,-94.76,70.33,0
23372,-0.15,0.99,0.27,57.50,-110.31,71.37,0
23382,-0.13,0.95,0.73,34.31,-97.10,65.45,0
23392,0.01,0.92,0.56,-3.67,-59.31,59.40,0
23402,-0.04,0.93,0.27,-28.49,2.08,55.20,0
23412,-0.13,0.89,0.02,-39.00,55.92,49.05,0
23422,-0.24,0.86,-0.17,-41.28,74.55,42.03,0
23432,-0.31,0.84,-0.28,-37.19,76.58,31.27,0
23442,-0.33,0.80,-0.32,-29.40,73.21,17.63,0
23452,-0.28,0.71,-0.30,-19.75,67.36,4.15,0
23462,-0.20,0.64,-0.22,-10.74,61.18,-5.68,0
23472,-0.16,0.65,-0.09,-4.96,56.95,-11.43,0
23482,-0.12,0.71,0.04,-3.20,54.69,-15.35,0
23492,-0.05,0.76,0.14,-5.56,51.02,-17.89,0
23502,0.06,0.78,0.22,-13.21,45.75,-19.03,0
23512,0.11,0.85,0.23,-20.55,50.57,-19.92,0
23522,0.11,0.91,0.24,-23.83,62.02,-22.56,0
23532,0.18,0.93,0.22,-26.93,73.38,-25.82,0
23542,0.21,0.95,0.19,-30.98,87.72,-28.46,0
23552,0.42,0.97,0.16,-33.51,93.89,-31.16,0
23562,0.67,0.99,0.16,-34.26,95.85,-27.12,0
23572,0.82,1.01,0.14,-33.73,97.30,-17.85,0
23582,0.95,1.07,0.02,-31.54,87.60,-8.15,0
23592,1.00,1.15,-0.07,-22.87,59.83,0.05,0
23602,0.98,1.26,-0.02,-9.08,20.59,3.95,0
23612,0.65,1.15,-0.21,4.07,-17.91,0.11,0
23622,0.30,0.90,-0.29,22.89,-65.18,-18.79,0
23632,0.30,0.90,-0.16,41.86,-104.66,-38.02,0
23642,0.30,0.94,0.03,53.89,-101.15,-46.81,0
23652,0.13,0.98,0.33,55.08,-82.05,-48.52,0
23662,0.01,1.24,0.54,42.57,-58.89,-52.00,0
23672,0.05,1.60,0.64,21.00,-24.02,-54.40,0
23682,0.20,1.64,0.46,-9.97,5.05,-45.29,0
23692,0.14,1.57,0.13,-27.92,23.33,-33.35,0
23702,0.08,1.49,-0.33,-20.84,29.11,-29.69,0
23712,-0.02,1.44,-0.54,1.95,30.75,-28.06,0
23722,-0.21,1.38,-0.45,20.82,23.11,-27.18,0
23732,-0.28,1.11,-0.33,30.34,-0.91,-30.41,0
23742,-0.25,0.75,-0.29,37.85,-19.49,-34.19,0
23752,-0.32,0.72,-0.30,42.18,-16.08,-34.53,0
23762,-0.44,0.87,-0.34,43.38,8.99,-36.46,0
23772,-0.55,0.93,-0.31,39.93,32.50,-46.47,0
23782,-0.49,0.95,-0.28,28.24,32.09,-63.02,0
23792,-0.38,0.96,-0.26,16.08,16.39,-76.23,0
23802,-0.29,0.91,-0.27,10.48,3.17,-84.61,0
23812,-0.19,0.90,-0.27,14.85,3.01,-88.24,0
23822,-0.09,0.90,-0.22,24.06,8.59,-84.76,0
23832,-0.02,0.89,-0.21,31.02,14.08,-75.76,0
23842,-0.02,0.93,-0.18,38.11,23.60,-66.01,0
23852,-0.04,0.98,-0.15,44.25,36.27,-60.04,0
23862,-0.00,1.02,-0.14,48.34,41.98,-58.13,0
23872,0.03,1.03,-0.12,50.53,34.98,-57.53,0
23882,0.07,1.03,-0.08,49.66,21.82,-58.38,0
23892,0.11,1.06,-0.05,44.57,8.11,-58.29,0
23902,0.12,1.10,-0.05,36.49,-3.56,-55.34,0
23912,0.10,1.11,-0.08,28.32,-10.82,-50.24,0
23922,0.06,1.10,-0.13,22.85,-17.15,-44.81,0
23932,0.04,1.08,-0.17,20.82,-18.16,-40.38,0
23942,0.02,1.06,-0.19,21.26,-17.05,-37.03,0
23952,0.01,1.06,-0.20,22.91,-18.61,-35.40,0
23962,0.01,1.05,-0.19,24.86,-21.16,-36.54,0
23972,0.05,1.04,-0.18,25.85,-17.76,-39.85,0
23982,0.10,1.02,-0.16,25.64,-4.43,-43.46,0
23992,0.15,0.99,-0.15,24.31,11.10,-45.71,0
24002,0.15,0.97,-0.15,21.89,19.34,-46.53,0
24012,0.15,0.95,-0.14,19.49,19.07,-47.89,0
24022,0.20,0.95,-0.16,17.63,11.57,-49.51,0
24032,0.25,0.99,-0.19,18.85,7.37,-48.69,0
24042,0.25,1.01,-0.21,24.06,11.47,-45.91,0
24052,0.24,1.00,-0.20,29.97,17.80,-41.97,0
24062,0.21,0.99,-0.19,32.53,17.64,-35.81,0
24072,0.16,1.01,-0.18,32.11,13.22,-29.53,0
24082,0.13,1.02,-0.18,30.20,10.37,-25.22,0
24092,0.09,1.01,-0.20,28.96,13.73,-22.03,0
24102,0.02,1.01,-0.23,30.46,25.18,-18.71,0
24112,-0.09,1.03,-0.25,35.11,40.88,-16.67,0
24122,-0.16,1.05,-0.25,39.92,48.85,-17.91,0
24132,-0.19,1.06,-0.24,44.16,44.76,-21.75,0
24142,-0.20,1.06,-0.24,48.28,33.90,-26.12,0
24152,-0.20,1.06,-0.23,53.69,21.55,-31.66,0
24162,-0.15,1.05,-0.20,61.21,9.79,-38.76,0
24172,-0.04,1.01,-0.10,67.13,-1.73,-45.03,0
24182,0.05,1.03,0.01,65.11,-13.58,-48.98,0
24192,0.14,1.10,0.08,55.03,-20.29,-51.60,0
24202,0.21,1.16,0.08,41.40,-19.23,-52.18,0
24212,0.28,1.19,0.06,28.74,-10.73,-51.26,0
24222,0.32,1.18,0.05,18.72,1.82,-48.21,0
24232,0.32,1.16,0.04,10.22,12.37,-42.79,0
24242,0.29,1.14,0.04,2.95,17.70,-36.95,0
24252,0.28,1.13,0.02,-5.09,20.32,-32.95,0
24262,0.31,1.17,-0.00,-15.59,22.05,-30.47,0
24272,0.36,1.35,-0.10,-27.95,22.73,-29.18,0
24282,0.43,1.49,-0.20,-31.73,38.72,-27.44,0
24292,0.52,1.48,-0.21,-26.34,57.64,-23.15,0
24302,0.63,1.32,-0.12,-18.99,58.62,-12.56,0
24312,0.69,1.20,-0.01,-15.41,40.23,6.51,0
24322,0.75,1.15,0.04,-13.64,18.01,30.61,0
24332,0.72,1.13,0.41,-12.36,-10.15,56.59,0
24342,0.77,1.13,1.26,-37.48,-121.30,81.23,0
24352,0.74,1.10,0.75,-89.06,-227.08,104.82,0
24362,0.53,1.07,0.33,-107.96,-169.01,124.03,0
24372,0.26,1.14,0.23,-107.72,-65.56,133.50,0
24382,0.07,1.49,0.12,-106.98,1.75,138.25,0
24392,-0.10,1.53,-0.06,-113.15,22.60,143.57,0
24402,-0.27,1.45,-0.18,-113.65,18.06,142.24,0
24412,-0.36,1.56,-0.26,-109.55,-13.93,135.70,0
24422,-0.37,1.64,-0.35,-104.40,-64.50,128.47,0
24432,-0.39,1.66,-0.37,-98.24,-110.91,121.36,0
24442,-0.44,1.62,-0.34,-95.97,-152.65,118.05,0
24452,-0.56,1.55,-0.36,-97.95,-189.79,117.80,0
24462,-0.69,1.50,-0.42,-98.05,-224.71,117.02,0
24472,-0.65,1.39,-0.53,-87.57,-237.19,113.01,0
24482,-0.45,1.17,-0.68,-63.62,-209.56,107.22,0
24492,-0.28,0.96,-0.77,-28.07,-158.71,101.31,0
24502,-0.26,0.87,-0.65,11.56,-112.76,95.37,0
24512,-0.26,0.88,-0.37,42.79,-90.06,87.41,0
24522,-0.29,0.90,-0.05,58.02,-82.60,77.89,0
24532,-0.31,0.92,0.21,56.71,-74.69,63.86,0
24542,-0.17,0.95,0.56,40.08,-58.37,47.04,0
24552,0.03,0.98,0.54,7.69,-38.65,36.40,0
24562,0.07,0.95,0.24,-18.84,3.83,30.73,0
24572,0.01,0.90,0.03,-31.82,51.50,25.00,0
24582,-0.09,0.88,-0.10,-35.41,74.27,19.73,0
24592,-0.15,0.82,-0.16,-34.21,78.68,13.48,0
24602,-0.16,0.76,-0.19,-31.98,80.46,5.66,0
24612,-0.17,0.71,-0.22,-27.95,87.34,-2.42,0
24622,-0.17,0.69,-0.25,-22.08,94.24,-10.12,0
24632,-0.16,0.70,-0.22,-15.15,95.69,-16.92,0
24642,-0.13,0.70,-0.17,-9.54,95.00,-23.05,0
24652,-0.08,0.71,-0.09,-4.44,92.48,-29.21,0
24662,0.01,0.76,0.18,-1.82,86.79,-35.19,0
24672,0.16,0.84,0.31,-8.76,73.85,-37.34,0
24682,0.28,0.88,0.26,-17.15,75.95,-37.05,0
24692,0.44,0.90,0.28,-23.20,86.95,-36.69,0
24702,0.53,0.91,0.27,-30.85,92.05,-33.76,0
24712,0.73,0.93,0.19,-38.14,88.73,-31.96,0
24722,0.98,1.03,0.00,-38.87,82.27,-26.56,0
24732,1.06,1.15,-0.13,-28.97,65.25,-18.31,0
24742,1.04,1.15,-0.14,-12.71,27.70,-9.08,0
24752,0.72,1.09,-0.05,4.13,-21.02,-0.54,0
24762,0.52,1.16,0.06,16.57,-43.74,-4.61,0
24772,0.37,1.17,-0.00,24.29,-46.56,-13.17,0
24782,0.17,0.94,-0.19,30.46,-76.21,-28.56,0
24792,0.19,0.91,-0.23,38.28,-111.72,-42.60,0
24802,0.23,0.89,-0.19,47.90,-103.65,-47.27,0
24812,0.10,1.14,0.08,59.85,-57.53,-46.01,0
24822,-0.22,1.73,1.26,47.89,-21.58,-44.06,0
24832,0.19,1.78,1.25,-2.24,9.15,-37.55,0
24842,0.31,1.26,0.28,-25.99,75.88,-15.66,0
24852,0.00,1.12,-0.32,-19.31,91.43,-2.11,0
24862,-0.14,1.32,-0.40,-2.07,55.66,-2.47,0
24872,-0.33,1.47,-0.30,9.88,16.45,-7.20,0
24882,-0.47,1.21,-0.23,13.96,-13.82,-21.32,0
24892,-0.40,0.88,-0.23,14.50,-26.17,-40.30,0
24902,-0.32,0.67,-0.19,13.43,-17.69,-53.42,0
24912,-0.28,0.74,-0.22,3.08,-20.40,-56.64,0
24922,-0.29,0.96,-0.31,-9.23,-34.37,-54.01,0
24932,-0.37,1.04,-0.42,-16.30,-43.39,-53.22,0
24942,-0.42,1.05,-0.53,-10.92,-40.60,-57.45,0
24952,-0.37,1.06,-0.51,6.17,-28.08,-63.37,0
24962,-0.27,1.03,-0.41,25.61,-6.11,-68.36,0
24972,-0.17,0.97,-0.32,39.85,14.49,-69.54,0
24982,-0.10,0.92,-0.22,47.15,27.85,-67.08,0
24992,-0.06,0.93,-0.17,49.57,38.29,-64.21,0
25002,-0.01,0.96,-0.14,50.37,48.37,-63.72,0
25012,0.07,0.99,-0.12,50.92,57.89,-64.53,0
25022,0.15,1.02,-0.11,51.69,66.99,-64.31,0
25032,0.20,1.03,-0.08,52.47,73.61,-61.53,0
25042,0.21,1.06,-0.05,50.19,71.63,-56.85,0
25052,0.18,1.15,-0.04,43.85,60.66,-52.24,0
25062,0.15,1.22,-0.04,34.92,42.96,-49.79,0
25072,0.15,1.22,-0.08,27.21,23.30,-49.69,0
25082,0.15,1.13,-0.12,24.37,5.35,-49.92,0
25092,0.17,1.04,-0.14,25.89,-11.47,-47.39,0
25102,0.16,1.02,-0.13,29.39,-22.62,-40.82,0
25112,0.10,1.01,-0.11,31.68,-27.31,-34.65,0
25122,0.06,1.02,-0.09,31.21,-29.26,-33.05,0
25132,0.07,1.02,-0.09,28.21,-28.66,-35.00,0
25142,0.09,1.01,-0.11,23.76,-26.87,-37.77,0
25152,0.10,1.00,-0.13,19.66,-23.96,-40.06,0
25162,0.12,0.97,-0.16,17.03,-20.64,-41.60,0
25172,0.11,0.94,-0.18,16.73,-16.86,-42.23,0
25182,0.12,0.93,-0.20,18.94,-12.79,-42.44,0
25192,0.15,0.94,-0.20,23.50,-4.95,-41.48,0
25202,0.17,0.94,-0.20,28.52,6.38,-39.51,0
25212,0.17,0.97,-0.19,32.36,15.27,-37.44,0
25222,0.17,1.00,-0.17,34.24,20.40,-35.54,0
25232,0.16,1.02,-0.15,34.46,22.00,-33.84,0
25242,0.17,1.03,-0.15,33.78,21.37,-32.15,0
25252,0.17,1.02,-0.15,32.63,20.08,-29.49,0
25262,0.12,1.01,-0.16,31.61,20.11,-26.82,0
25272,0.06,1.02,-0.18,31.79,18.65,-25.48,0
25282,-0.02,1.05,-0.19,34.31,16.27,-25.58,0
25292,-0.08,1.09,-0.18,38.62,12.21,-28.27,0
25302,-0.10,1.11,-0.17,43.54,5.04,-33.55,0
25312,-0.09,1.11,-0.15,48.78,0.02,-39.85,0
25322,-0.06,1.09,-0.10,52.71,-0.82,-46.08,0
25332,-0.03,1.07,-0.04,52.74,-3.67,-51.42,0
25342,0.04,1.07,0.02,47.76,-6.70,-55.39,0
25352,0.12,1.05,0.04,38.03,-10.33,-56.28,0
25362,0.18,1.03,0.04,26.66,-12.15,-54.43,0
25372,0.25,1.06,0.02,16.07,-8.96,-51.52,0
25382,0.30,1.10,-0.02,8.55,-2.61,-47.98,0
25392,0.34,1.13,-0.02,3.40,3.84,-44.95,0
25402,0.36,1.16,-0.02,-2.50,7.82,-41.88,0
25412,0.37,1.27,-0.07,-7.95,10.51,-38.98,0
25422,0.37,1.50,-0.08,-9.02,15.40,-38.78,0
25432,0.44,1.65,-0.06,-10.76,14.02,-39.74,0
25442,0.57,1.60,-0.06,-12.98,8.25,-36.98,0
25452,0.76,1.42,-0.02,-10.67,3.74,-27.02,0
25462,0.90,1.23,0.04,-6.17,-0.58,-6.27,0
25472,0.91,1.19,0.11,-1.64,-3.09,22.29,0
25482,0.81,1.25,0.74,0.21,-17.08,52.03,0
25492,0.96,1.32,1.64,-31.95,-112.06,81.31,0
25502,0.67,1.27,0.94,-88.57,-169.37,113.83,0
25512,0.21,1.18,0.33,-115.52,-95.23,133.79,0
25522,0.04,1.08,0.10,-127.69,-29.75,141.24,0
25532,-0.07,1.25,-0.04,-133.80,-13.09,143.17,0
25542,-0.21,1.57,-0.13,-131.58,-13.57,142.69,0
25552,-0.43,1.54,-0.17,-127.23,-29.65,142.67,0
25562,-0.58,1.37,-0.24,-125.97,-64.40,135.50,0
25572,-0.51,1.41,-0.39,-122.56,-110.79,123.90,0
25582,-0.38,1.45,-0.49,-110.04,-147.25,117.76,0
25592,-0.30,1.44,-0.50,-93.66,-159.40,117.32,0
25602,-0.27,1.45,-0.55,-76.68,-151.37,119.40,0
25612,-0.27,1.38,-0.66,-56.95,-125.99,121.28,0
25622,-0.25,1.29,-0.78,-33.21,-95.22,120.33,0
25632,-0.23,1.22,-0.78,-5.09,-77.27,114.30,0
25642,-0.23,1.16,-0.72,23.98,-86.27,105.94,0
25652,-0.25,1.11,-0.51,53.26,-112.10,97.57,0
25662,-0.19,1.07,-0.08,74.82,-133.40,88.69,0
25672,-0.16,1.01,0.37,78.53,-132.25,80.41,0
25682,-0.02,1.01,0.92,59.53,-112.18,70.75,0
25692,0.13,1.02,0.92,18.25,-75.09,66.10,0
25702,0.03,0.99,0.57,-19.51,-7.63,62.35,0
25712,-0.06,0.95,0.23,-42.34,56.57,54.04,0
25722,-0.15,0.95,-0.05,-51.58,88.26,45.63,0
25732,-0.24,0.94,-0.18,-50.86,94.36,36.27,0
25742,-0.28,0.89,-0.24,-45.89,90.94,25.49,0
25752,-0.28,0.80,-0.21,-39.53,88.81,14.98,0
25762,-0.28,0.72,-0.16,-34.53,87.83,5.90,0
25772,-0.30,0.70,-0.16,-30.83,84.40,-2.51,0
25782,-0.31,0.69,-0.17,-26.03,79.85,-11.42,0
25792,-0.32,0.67,-0.18,-19.09,77.88,-21.76,0
25802,-0.30,0.66,-0.15,-10.44,78.95,-33.69,0
25812,-0.25,0.69,-0.07,-2.55,84.11,-45.89,0
25822,-0.14,0.76,0.11,0.99,90.39,-56.52,0
25832,0.08,0.85,0.32,-3.85,93.61,-62.95,0
25842,0.32,0.88,0.37,-14.84,99.50,-62.43,0
25852,0.60,0.91,0.39,-23.13,104.92,-54.79,0
25862,0.78,0.97,0.46,-30.55,112.98,-42.00,0
25872,0.89,1.08,0.26,-37.00,119.68,-29.18,0
25882,1.02,1.19,-0.03,-33.74,117.26,-21.09,0
25892,1.13,1.26,-0.15,-21.38,90.98,-17.47,0
25902,0.91,1.23,-0.12,-7.98,36.43,-17.54,0
25912,0.63,1.12,-0.02,3.02,-20.30,-25.90,0
25922,0.57,1.02,-0.08,14.02,-63.50,-33.66,0
25932,0.33,0.83,-0.24,25.31,-94.10,-40.87,0
25942,0.26,0.86,-0.26,37.08,-117.73,-51.29,0
25952,0.27,0.98,-0.19,49.95,-114.80,-57.79,0
25962,0.31,1.26,-0.15,65.08,-75.24,-61.34,0
25972,0.05,1.66,0.51,73.56,-12.79,-57.63,0
25982,-0.13,1.81,1.62,40.05,3.04,-49.15,0
25992,0.21,1.41,0.84,-5.65,11.79,-32.51,0
26002,0.10,1.11,-0.07,-17.08,38.21,-7.95,0
26012,-0.13,1.13,-0.32,-9.60,29.89,4.50,0
26022,-0.25,1.16,-0.31,-1.37,-1.02,6.83,0
26032,-0.44,1.06,-0.39,0.92,-25.31,1.48,0
26042,-0.57,0.94,-0.49,4.84,-24.15,-17.25,0
26052,-0.50,0.92,-0.49,13.25,-8.59,-43.93,0
26062,-0.33,1.02,-0.42,19.85,4.82,-64.92,0
26072,-0.25,1.04,-0.32,17.72,9.79,-73.40,0
26082,-0.33,1.01,-0.29,10.03,8.15,-76.85,0
26092,-0.32,0.96,-0.31,6.03,-5.02,-81.80,0
26102,-0.16,0.91,-0.33,10.16,-20.19,-82.02,0
26112,-0.06,0.87,-0.32,21.36,-18.63,-71.95,0
26122,-0.09,0.86,-0.26,34.37,-2.97,-59.39,0
26132,-0.13,0.92,-0.17,43.86,14.92,-53.70,0
26142,-0.10,1.02,-0.09,46.72,27.93,-55.01,0
26152,-0.02,1.05,-0.06,43.18,34.44,-58.05,0
26162,0.05,1.04,-0.07,37.80,33.94,-59.51,0
26172,0.10,1.02,-0.07,34.70,32.05,-60.76,0
26182,0.15,1.01,-0.07,33.73,34.76,-60.90,0
26192,0.19,1.05,-0.06,31.98,41.59,-57.56,0
26202,0.17,1.09,-0.09,27.84,46.19,-50.76,0
26212,0.13,1.12,-0.14,24.21,45.06,-44.34,0
26222,0.10,1.13,-0.17,23.78,37.05,-40.65,0
26232,0.08,1.11,-0.18,25.53,23.92,-38.42,0
26242,0.07,1.10,-0.17,27.61,5.88,-38.03,0
26252,0.09,1.09,-0.16,28.68,-13.68,-39.88,0
26262,0.13,1.05,-0.13,29.23,-27.40,-43.11,0
26272,0.16,1.01,-0.12,28.56,-30.74,-45.58,0
26282,0.19,0.97,-0.14,27.60,-28.97,-45.68,0
26292,0.22,0.93,-0.15,28.05,-25.48,-42.79,0
26302,0.22,0.91,-0.15,30.13,-16.26,-37.47,0
26312,0.16,0.92,-0.14,33.27,-1.27,-32.21,0
26322,0.12,0.96,-0.13,36.71,13.66,-29.48,0
26332,0.10,1.00,-0.10,39.02,25.97,-28.05,0
26342,0.07,1.01,-0.09,39.76,34.17,-28.38,0
26352,0.06,1.00,-0.09,39.34,36.75,-30.48,0
26362,0.11,0.98,-0.08,37.80,33.73,-32.61,0
26372,0.15,0.98,-0.08,35.27,31.76,-32.68,0
26382,0.18,0.98,-0.07,32.29,36.20,-30.70,0
26392,0.18,0.97,-0.07,29.64,45.87,-27.17,0
26402,0.16,0.97,-0.09,27.84,55.08,-23.18,0
26412,0.12,0.99,-0.11,27.77,60.06,-19.36,0
26422,0.08,1.01,-0.13,29.36,58.27,-16.44,0
26432,0.06,1.04,-0.11,31.14,50.09,-15.13,0
26442,0.05,1.04,-0.10,32.68,38.39,-14.55,0
26452,0.04,1.03,-0.09,34.68,25.92,-13.69,0
26462,0.01,1.04,-0.08,36.18,12.89,-12.23,0
26472,-0.06,1.05,-0.08,36.17,-0.15,-11.24,0
26482,-0.12,1.06,-0.04,33.16,-12.95,-13.29,0
26492,-0.17,1.09,-0.04,24.79,-26.28,-18.09,0
26502,-0.19,1.12,-0.08,14.11,-37.69,-24.43,0
26512,-0.16,1.08,-0.12,4.60,-44.04,-30.47,0
26522,-0.08,1.05,-0.16,-1.33,-43.96,-35.05,0
26532,0.02,1.04,-0.17,-3.05,-36.92,-37.96,0
26542,0.10,1.07,-0.17,-2.48,-27.78,-41.64,0
26552,0.18,1.14,-0.18,-1.78,-22.55,-45.98,0
26562,0.27,1.25,-0.18,-0.11,-18.47,-49.68,0
26572,0.42,1.40,-0.15,-0.96,-15.73,-50.37,0
26582,0.54,1.49,-0.15,-3.85,-10.13,-45.10,0
26592,0.68,1.43,-0.19,-1.30,-0.02,-35.69,0
26602,0.86,1.33,-0.25,10.72,8.45,-22.56,0
26612,1.07,1.26,-0.23,31.31,6.69,-1.49,0
26622,1.16,1.25,-0.12,51.73,-5.69,28.85,0
26632,1.19,1.37,1.24,59.00,-60.50,62.51,0
26642,1.40,1.40,2.00,-3.02,-237.85,101.53,0
26652,0.85,1.29,0.98,-70.58,-250.14,138.73,0
26662,0.22,1.28,0.47,-90.66,-164.88,149.40,0
26672,-0.01,1.52,0.24,-101.70,-43.62,142.79,0
