timestamp,ax,ay,az,gx,gy,gz,label
310,-0.62,0.76,-0.20,-1.98,-2.27,-4.37,0
313,-0.62,0.75,-0.20,-1.90,-2.43,-4.55,0
316,-0.62,0.75,-0.20,-1.90,-2.43,-4.55,0
318,-0.62,0.75,-0.20,-1.90,-2.43,-4.55,0
321,-0.62,0.75,-0.20,-1.90,-2.43,-4.55,0
324,-0.62,0.76,-0.20,-1.90,-2.56,-4.64,0
327,-0.62,0.76,-0.20,-1.90,-2.56,-4.64,0
329,-0.62,0.76,-0.20,-1.90,-2.56,-4.64,0
342,-0.62,0.76,-0.20,-1.80,-3.15,-4.68,0
345,-0.62,0.76,-0.20,-1.80,-3.15,-4.68,0
347,-0.62,0.76,-0.20,-1.80,-3.15,-4.68,0
350,-0.62,0.76,-0.20,-1.80,-3.15,-4.68,0
353,-0.62,0.76,-0.20,-2.06,-3.46,-4.98,0
356,-0.62,0.76,-0.20,-2.06,-3.46,-4.98,0
358,-0.62,0.76,-0.20,-2.06,-3.46,-4.98,0
361,-0.62,0.76,-0.20,-2.06,-3.46,-4.98,0
364,-0.62,0.76,-0.20,-2.29,-3.54,-5.40,0
366,-0.62,0.76,-0.20,-2.29,-3.54,-5.40,0
379,-0.62,0.76,-0.20,-2.27,-3.78,-5.80,0
382,-0.62,0.76,-0.20,-2.22,-4.00,-6.14,0
385,-0.62,0.76,-0.20,-2.22,-4.00,-6.14,0
387,-0.62,0.76,-0.20,-2.22,-4.00,-6.14,0
390,-0.62,0.76,-0.20,-2.22,-4.00,-6.14,0
393,-0.63,0.76,-0.20,-2.08,-4.00,-6.43,0
395,-0.63,0.76,-0.20,-2.08,-4.00,-6.43,0
398,-0.63,0.76,-0.20,-2.08,-4.00,-6.43,0
401,-0.63,0.76,-0.20,-2.08,-4.00,-6.43,0
403,-0.62,0.76,-0.20,-2.13,-3.86,-6.56,0
416,-0.62,0.76,-0.20,-2.22,-3.96,-6.59,0
419,-0.62,0.76,-0.20,-2.22,-3.96,-6.59,0
422,-0.62,0.76,-0.20,-2.18,-3.99,-6.90,0
424,-0.63,0.76,-0.20,-2.18,-3.99,-6.90,0
427,-0.63,0.76,-0.20,-2.18,-3.99,-6.90,0
430,-0.63,0.76,-0.20,-2.18,-3.99,-6.90,0
433,-0.63,0.76,-0.20,-2.25,-3.89,-7.25,0
435,-0.63,0.76,-0.20,-2.25,-3.89,-7.25,0
438,-0.63,0.76,-0.20,-2.25,-3.89,-7.25,0
441,-0.63,0.76,-0.20,-2.25,-3.89,-7.25,0
454,-0.63,0.76,-0.19,-2.15,-3.73,-7.54,0
456,-0.63,0.76,-0.19,-2.15,-3.73,-7.54,0
459,-0.63,0.76,-0.19,-2.15,-3.73,-7.54,0
462,-0.63,0.76,-0.19,-2.17,-3.68,-7.61,0
464,-0.62,0.76,-0.19,-2.17,-3.68,-7.61,0
467,-0.62,0.76,-0.19,-2.17,-3.68,-7.61,0
470,-0.62,0.76,-0.19,-2.17,-3.68,-7.61,0
472,-0.62,0.76,-0.19,-2.13,-3.63,-7.73,0
475,-0.63,0.76,-0.19,-2.13,-3.63,-7.73,0
478,-0.63,0.76,-0.19,-2.13,-3.63,-7.73,0
491,-0.63,0.76,-0.19,-2.03,-3.49,-7.76,0
493,-0.63,0.76,-0.19,-2.02,-3.53,-7.65,0
496,-0.63,0.76,-0.19,-2.02,-3.53,-7.65,0
499,-0.63,0.76,-0.19,-2.02,-3.53,-7.65,0
501,-0.63,0.76,-0.19,-2.02,-3.53,-7.65,0
504,-0.63,0.76,-0.19,-1.98,-3.63,-7.69,0
507,-0.63,0.76,-0.19,-1.98,-3.63,-7.69,0
510,-0.63,0.76,-0.19,-1.98,-3.63,-7.69,0
512,-0.63,0.76,-0.19,-2.08,-3.60,-7.68,0
515,-0.63,0.76,-0.20,-2.08,-3.60,-7.68,0
528,-0.63,0.76,-0.20,-2.07,-3.65,-7.61,0
530,-0.63,0.76,-0.20,-2.07,-3.65,-7.61,0
533,-0.63,0.76,-0.19,-2.24,-3.73,-7.47,0
536,-0.63,0.76,-0.19,-2.24,-3.73,-7.47,0
539,-0.63,0.76,-0.19,-2.24,-3.73,-7.47,0
541,-0.63,0.76,-0.19,-2.24,-3.73,-7.47,0
544,-0.63,0.76,-0.19,-2.50,-3.81,-7.26,0
547,-0.63,0.76,-0.19,-2.50,-3.81,-7.26,0
549,-0.63,0.76,-0.19,-2.50,-3.81,-7.26,0
552,-0.63,0.76,-0.19,-2.65,-3.73,-7.05,0
565,-0.63,0.76,-0.19,-2.76,-3.59,-6.89,0
568,-0.63,0.76,-0.19,-2.76,-3.59,-6.89,0
570,-0.63,0.76,-0.19,-2.76,-3.59,-6.89,0
573,-0.63,0.76,-0.18,-2.92,-3.44,-6.81,0
576,-0.63,0.76,-0.18,-2.92,-3.44,-6.81,0
578,-0.63,0.76,-0.18,-2.92,-3.44,-6.81,0
581,-0.63,0.76,-0.18,-2.92,-3.44,-6.81,0
584,-0.63,0.76,-0.19,-2.92,-3.22,-6.60,0
587,-0.63,0.76,-0.19,-2.92,-3.22,-6.60,0
589,-0.63,0.76,-0.19,-2.92,-3.22,-6.60,0
602,-0.63,0.76,-0.18,-3.24,-2.80,-6.11,0
605,-0.63,0.76,-0.18,-3.24,-2.80,-6.11,0
610,-0.63,0.76,-0.18,-3.24,-2.80,-6.11,0
620,-0.63,0.76,-0.18,-3.70,-2.40,-5.58,0
630,-0.62,0.76,-0.19,-3.85,-2.34,-5.47,0
640,-0.62,0.76,-0.20,-3.76,-2.33,-5.33,0
650,-0.62,0.76,-0.20,-3.72,-2.91,-5.32,0
660,-0.62,0.76,-0.19,-3.82,-3.65,-5.59,0
670,-0.63,0.76,-0.19,-4.23,-3.71,-5.69,0
680,-0.62,0.76,-0.19,-4.56,-3.90,-5.58,0
690,-0.62,0.76,-0.19,-4.40,-4.45,-5.69,0
700,-0.63,0.76,-0.18,-4.39,-4.40,-5.76,0
710,-0.63,0.76,-0.18,-4.45,-4.22,-5.63,0
720,-0.63,0.76,-0.18,-4.27,-4.44,-5.41,0
730,-0.63,0.76,-0.18,-4.53,-4.56,-5.21,0
740,-0.63,0.76,-0.18,-4.94,-4.34,-4.92,0
750,-0.63,0.76,-0.18,-5.17,-4.16,-4.46,0
760,-0.63,0.76,-0.17,-5.27,-4.14,-3.89,0
770,-0.63,0.76,-0.17,-5.78,-3.78,-3.11,0
780,-0.62,0.76,-0.17,-6.23,-3.44,-2.27,0
790,-0.62,0.76,-0.18,-6.59,-3.28,-1.33,0
800,-0.62,0.77,-0.18,-6.69,-3.76,-0.63,0
810,-0.62,0.77,-0.17,-6.86,-3.95,-0.52,0
820,-0.62,0.77,-0.17,-6.97,-3.76,-0.33,0
830,-0.62,0.76,-0.18,-7.03,-4.20,0.31,0
840,-0.62,0.77,-0.17,-7.52,-4.78,1.03,0
850,-0.62,0.77,-0.16,-8.49,-4.50,1.53,0
860,-0.62,0.78,-0.16,-9.35,-3.81,1.66,0
870,-0.62,0.77,-0.17,-9.17,-3.74,1.45,0
880,-0.61,0.76,-0.18,-8.63,-4.63,1.79,0
890,-0.61,0.77,-0.16,-8.85,-5.31,2.71,0
900,-0.62,0.78,-0.15,-10.53,-3.85,2.83,0
910,-0.61,0.78,-0.16,-11.78,-1.91,2.08,0
920,-0.61,0.79,-0.16,-11.94,-1.95,1.44,0
930,-0.61,0.79,-0.16,-11.79,-2.24,0.60,0
940,-0.62,0.83,-0.13,-12.11,-1.76,-0.38,0
950,-0.59,0.79,-0.16,-11.68,2.21,-4.53,0
960,-0.60,0.75,-0.18,-9.59,-1.05,-8.80,0
970,-0.62,0.79,-0.15,-8.31,-4.21,-6.67,0
980,-0.60,0.78,-0.15,-8.88,-5.72,-4.50,0
990,-0.60,0.79,-0.15,-10.01,-4.19,-4.47,0
1000,-0.61,0.78,-0.15,-10.45,-3.43,-5.34,0
1010,-0.61,0.78,-0.14,-9.96,-4.09,-5.24,0
1020,-0.61,0.78,-0.14,-9.15,-4.69,-5.02,0
1030,-0.60,0.79,-0.14,-8.63,-4.53,-5.07,0
1040,-0.61,0.80,-0.13,-7.61,-4.79,-6.10,0
1050,-0.61,0.79,-0.13,-6.06,-4.63,-8.42,0
1060,-0.62,0.78,-0.13,-4.82,-4.41,-9.15,0
1070,-0.62,0.78,-0.12,-4.32,-4.47,-7.53,0
1080,-0.62,0.78,-0.13,-4.95,-3.32,-5.50,0
1090,-0.62,0.79,-0.12,-5.14,-2.35,-4.20,0
1100,-0.62,0.79,-0.11,-4.91,-0.76,-3.87,0
1110,-0.62,0.79,-0.12,-4.26,0.85,-3.61,0
1120,-0.61,0.79,-0.12,-3.60,1.60,-3.58,0
1130,-0.60,0.79,-0.13,-3.20,2.02,-3.97,0
1140,-0.60,0.79,-0.14,-3.12,2.48,-4.60,0
1150,-0.60,0.79,-0.14,-2.58,1.93,-5.44,0
1160,-0.60,0.79,-0.13,-1.95,0.96,-6.85,0
1170,-0.61,0.80,-0.13,-1.89,1.19,-8.28,0
1180,-0.60,0.80,-0.12,-1.95,2.18,-9.54,0
1190,-0.60,0.79,-0.14,-1.57,3.32,-10.73,0
1200,-0.60,0.79,-0.14,-1.10,3.32,-11.95,0
1210,-0.60,0.80,-0.13,-1.41,3.30,-13.44,0
1220,-0.60,0.79,-0.13,-1.97,4.71,-15.11,0
1230,-0.60,0.78,-0.15,-1.77,4.91,-16.07,0
1240,-0.60,0.78,-0.15,-1.31,3.47,-16.06,0
1250,-0.60,0.78,-0.15,-1.21,1.97,-16.25,0
1260,-0.60,0.78,-0.16,-1.79,0.66,-16.70,0
1270,-0.60,0.78,-0.16,-1.99,-1.48,-16.55,0
1280,-0.60,0.77,-0.16,-1.17,-4.08,-15.99,0
1290,-0.60,0.77,-0.17,-0.20,-6.82,-15.37,0
1300,-0.61,0.77,-0.16,0.54,-9.68,-14.46,0
1310,-0.61,0.76,-0.16,0.92,-12.79,-13.25,0
1320,-0.61,0.77,-0.16,0.74,-16.37,-11.16,0
1330,-0.62,0.77,-0.14,-0.02,-20.24,-8.58,0
1340,-0.62,0.77,-0.15,-2.06,-20.72,-5.79,0
1350,-0.60,0.76,-0.21,-2.28,-23.99,-2.38,0
1360,-0.61,0.79,-0.18,-0.01,-34.50,1.28,0
1370,-0.63,0.81,-0.11,-1.03,-40.36,3.55,0
1380,-0.64,0.80,-0.10,-4.85,-38.53,4.86,0
1390,-0.63,0.77,-0.11,-7.08,-37.43,6.09,0
1400,-0.64,0.77,-0.14,-5.24,-35.40,6.21,0
1410,-0.61,0.89,-0.11,-4.15,-40.26,4.56,0
1420,-0.73,0.85,-0.07,-10.45,-41.83,4.62,0
1430,-0.69,0.76,-0.10,-21.76,-35.92,2.11,0
1440,-0.71,0.80,-0.15,-29.98,-30.50,3.10,0
1450,-0.97,0.95,-0.32,-29.44,-23.08,5.66,0
1460,-1.20,1.12,-0.61,-9.44,38.80,-4.41,0
1470,-0.63,0.88,-0.64,17.93,85.11,-14.27,0
1480,-0.43,0.50,-0.42,22.72,27.87,-2.09,0
1490,-0.67,0.55,-0.28,16.28,-1.47,5.69,0
1500,-0.92,0.68,-0.33,17.58,-10.73,-0.94,0
1510,-0.95,0.57,-0.39,33.79,-12.15,-13.38,0
1520,-0.88,0.41,-0.33,46.62,-10.86,-21.83,0
1530,-0.85,0.42,-0.28,41.66,-7.22,-25.15,0
1540,-0.82,0.47,-0.32,27.30,-2.63,-25.06,0
1550,-0.83,0.50,-0.40,20.79,-0.46,-21.89,0
1560,-0.81,0.55,-0.42,24.99,-2.24,-19.09,0
1570,-0.79,0.62,-0.41,31.71,-4.66,-18.88,0
1580,-0.76,0.66,-0.37,36.47,-4.44,-22.54,0
1590,-0.72,0.67,-0.37,39.98,-2.77,-27.96,0
1600,-0.69,0.68,-0.36,45.66,-5.07,-31.40,0
1610,-0.67,0.72,-0.32,52.46,-12.00,-32.27,0
1620,-0.66,0.75,-0.30,57.90,-18.03,-32.69,0
1630,-0.65,0.74,-0.29,61.70,-21.29,-34.40,0
1640,-0.63,0.71,-0.29,64.40,-22.83,-37.18,0
1650,-0.62,0.70,-0.27,65.78,-24.05,-38.98,0
1660,-0.61,0.72,-0.26,65.51,-23.94,-38.25,0
1670,-0.62,0.74,-0.23,64.22,-22.46,-35.37,0
1680,-0.60,0.76,-0.20,61.85,-20.75,-31.99,0
1690,-0.61,0.76,-0.17,58.63,-18.60,-29.97,0
1700,-0.62,0.72,-0.17,56.08,-16.33,-30.81,0
1710,-0.62,0.68,-0.16,55.07,-15.11,-32.19,0
1720,-0.61,0.67,-0.15,55.18,-17.85,-32.42,0
1730,-0.61,0.71,-0.14,55.78,-20.80,-31.08,0
1740,-0.61,0.72,-0.13,56.47,-23.00,-29.41,0
1750,-0.61,0.70,-0.12,57.04,-26.68,-28.98,0
1760,-0.59,0.70,-0.13,58.13,-31.08,-29.18,0
1770,-0.61,0.71,-0.13,60.31,-35.11,-29.22,0
1780,-0.60,0.71,-0.11,61.69,-38.06,-29.76,0
1790,-0.61,0.71,-0.10,60.79,-40.72,-30.24,0
1800,-0.64,0.73,-0.10,59.07,-40.04,-32.79,0
1810,-0.61,0.69,-0.11,57.86,-37.85,-36.40,0
1820,-0.58,0.65,-0.12,56.76,-38.31,-36.95,0
1830,-0.58,0.67,-0.12,53.53,-38.53,-34.22,0
1840,-0.56,0.70,-0.13,47.80,-34.07,-30.83,0
1850,-0.54,0.76,-0.12,40.55,-27.07,-26.33,0
1860,-0.52,0.78,-0.12,32.91,-18.12,-23.68,0
1870,-0.49,0.78,-0.13,26.44,-10.63,-22.99,0
1880,-0.46,0.79,-0.12,21.73,-5.59,-20.44,0
1890,-0.43,0.82,-0.09,17.34,-3.64,-15.19,0
1900,-0.41,0.87,-0.07,12.88,-0.02,-8.77,0
1910,-0.36,0.88,-0.06,9.29,2.85,-2.46,0
1920,-0.33,0.89,-0.01,6.15,2.11,4.01,0
1930,-0.32,0.94,0.05,2.47,0.53,11.08,0
1940,-0.32,0.97,0.08,-0.53,-2.03,17.79,0
1950,-0.30,0.96,0.12,-1.27,-6.37,23.48,0
1960,-0.28,0.94,0.16,-1.27,-11.96,29.40,0
1970,-0.27,0.91,0.20,-2.15,-19.79,35.93,0
1980,-0.33,0.87,0.15,-3.02,-28.60,41.27,0
1990,-1.09,0.69,-0.19,5.11,-24.19,35.31,0
2000,-1.84,0.34,-0.60,32.02,17.09,-3.15,0
2010,-1.90,-0.07,-0.29,52.32,19.15,-47.41,0
2020,-0.52,0.17,-0.11,33.66,-27.60,-42.40,0
2030,-0.25,1.27,-0.38,9.60,-25.89,50.73,0
2040,-0.91,1.67,0.02,-16.69,-21.64,139.47,0
2050,-0.76,0.82,-0.05,-64.60,-3.03,154.93,0
2060,-0.43,0.33,-0.50,-94.39,13.38,131.24,0
2070,-0.49,0.83,-0.61,-76.84,8.62,98.59,0
2080,-0.60,1.24,-0.34,-37.37,-25.46,63.67,0
2090,-0.57,0.82,-0.23,-6.20,-56.26,39.27,0
2100,-0.69,0.83,-0.03,1.91,-59.37,30.91,0
2110,-0.63,0.92,-0.08,-13.85,-40.75,28.20,0
2120,-0.58,0.81,-0.21,-26.22,-25.36,27.93,0
2130,-0.61,0.83,-0.16,-22.78,-27.31,24.31,0
2140,-0.65,0.87,-0.06,-14.99,-29.46,15.46,0
2150,-0.63,0.85,-0.07,-10.23,-23.41,6.37,0
2160,-0.62,0.82,-0.12,-6.21,-16.64,1.60,0
2170,-0.61,0.80,-0.13,-2.65,-15.74,0.11,0
2180,-0.60,0.81,-0.13,-2.35,-14.36,0.24,0
2190,-0.60,0.80,-0.15,-4.34,-12.01,0.22,0
2200,-0.59,0.79,-0.18,-6.09,-11.18,-0.70,0
2210,-0.59,0.79,-0.17,-7.52,-13.42,-1.63,0
2220,-0.60,0.80,-0.13,-10.70,-13.15,-2.39,0
2230,-0.61,0.80,-0.12,-14.11,-8.85,-2.85,0
2240,-0.61,0.79,-0.13,-14.22,-6.56,-2.08,0
2250,-0.61,0.80,-0.13,-11.70,-7.11,-0.89,0
2260,-0.61,0.79,-0.13,-9.89,-7.15,-0.26,0
2270,-0.60,0.80,-0.13,-8.81,-6.19,0.09,0
2280,-0.60,0.80,-0.13,-7.31,-5.31,0.66,0
2290,-0.60,0.80,-0.13,-5.00,-5.24,1.20,0
2300,-0.59,0.79,-0.14,-2.83,-6.05,1.35,0
2310,-0.58,0.80,-0.14,-2.16,-6.87,0.85,0
2320,-0.58,0.80,-0.14,-3.03,-6.66,-0.12,0
2330,-0.58,0.80,-0.14,-3.59,-7.38,-0.64,0
2340,-0.58,0.80,-0.14,-3.77,-8.30,-0.73,0
2350,-0.57,0.80,-0.15,-4.04,-8.76,-1.15,0
2360,-0.58,0.80,-0.14,-4.14,-9.93,-1.39,0
2370,-0.58,0.81,-0.13,-4.13,-11.09,-1.72,0
2380,-0.58,0.81,-0.12,-3.76,-11.18,-2.49,0
2390,-0.59,0.81,-0.12,-2.79,-10.39,-3.24,0
2400,-0.58,0.81,-0.12,-1.76,-10.59,-3.41,0
2410,-0.59,0.81,-0.11,-1.39,-10.08,-3.02,0
2420,-0.58,0.81,-0.11,-1.40,-9.12,-2.17,0
2430,-0.58,0.81,-0.11,-0.90,-8.75,-1.35,0
2440,-0.58,0.81,-0.12,0.02,-8.64,-0.63,0
2450,-0.57,0.81,-0.12,0.85,-8.96,-0.55,0
2460,-0.57,0.81,-0.12,0.98,-8.63,-0.61,0
2470,-0.58,0.81,-0.12,0.63,-8.55,-0.40,0
2480,-0.59,0.81,-0.11,0.03,-8.40,0.21,0
2490,-0.59,0.80,-0.10,-0.46,-7.37,1.02,0
2500,-0.59,0.81,-0.10,-0.24,-5.12,2.15,0
2510,-0.59,0.82,-0.09,0.93,-3.79,3.69,0
2520,-0.58,0.81,-0.10,2.07,-2.26,5.34,0
2530,-0.58,0.81,-0.10,3.14,-0.83,6.90,0
2540,-0.57,0.82,-0.10,3.93,0.84,8.15,0
2550,-0.57,0.82,-0.11,4.98,1.99,9.85,0
2560,-0.56,0.83,-0.11,6.31,2.40,12.05,0
2570,-0.57,0.82,-0.12,7.27,3.23,14.12,0
2580,-0.54,0.82,-0.12,7.31,3.15,15.14,0
2590,-0.57,0.83,-0.12,6.69,3.53,16.56,0
2600,-0.55,0.83,-0.11,5.36,4.37,17.18,0
2610,-0.56,0.83,-0.12,4.22,5.93,18.82,0
2620,-0.53,0.83,-0.14,4.21,5.92,20.44,0
2630,-0.53,0.82,-0.16,4.44,5.07,21.08,0
2640,-0.53,0.83,-0.16,2.99,1.15,21.80,0
2650,-0.51,0.84,-0.15,-0.51,0.00,23.20,0
2660,-0.53,0.84,-0.14,-4.17,-0.62,25.40,0
2670,-0.52,0.84,-0.14,-6.40,-1.40,27.26,0
2680,-0.53,0.84,-0.14,-7.27,-3.19,29.02,0
2690,-0.55,0.82,-0.14,-7.88,-7.02,31.02,0
2700,-0.57,0.85,-0.08,-11.50,-10.28,31.90,0
2710,-0.58,0.88,-0.03,-19.93,-6.29,34.73,0
2720,-0.59,0.89,-0.05,-26.36,0.06,41.24,0
2730,-0.67,0.92,-0.02,-29.08,3.16,49.54,0
2740,-0.73,0.98,-0.01,-33.11,9.18,58.68,0
2750,-0.75,1.10,-0.01,-38.93,15.98,70.51,0
2760,-0.75,1.32,-0.07,-41.38,20.30,82.68,0
2770,-0.78,1.53,-0.13,-34.78,5.87,92.09,0
2780,-0.99,1.66,-0.12,-15.56,-6.03,93.61,0
2790,-0.95,1.41,-0.21,11.37,21.11,88.39,0
2800,-0.87,1.07,-0.17,23.97,-4.57,93.82,0
2810,-0.90,1.05,-0.14,16.27,-5.90,108.40,0
2820,-0.92,1.06,-0.17,-4.90,-3.99,127.17,0
2830,-0.92,1.00,-0.24,-22.53,-4.54,149.23,0
2840,-0.88,0.91,-0.28,-26.43,-4.10,170.01,0
2850,-0.90,0.76,-0.28,-17.23,-12.89,182.02,0
2860,-1.52,0.34,-0.19,-5.88,-28.98,171.89,0
2870,-1.55,-0.02,-0.34,1.85,-42.73,119.43,0
2880,-1.29,0.12,-0.38,27.75,-47.46,61.99,0
2890,-1.17,0.16,-0.21,63.53,-48.10,21.83,0
2900,-1.18,0.04,-0.08,79.89,-52.73,1.16,0
2910,-1.10,-0.02,-0.01,72.31,-51.55,-10.43,0
2920,-1.07,-0.05,-0.01,54.05,-38.47,-19.54,0
2930,-1.02,-0.01,-0.03,37.02,-24.32,-32.26,0
2940,-0.96,0.08,-0.05,26.19,-11.34,-51.87,0
2950,-0.90,0.17,-0.06,21.47,0.21,-76.67,0
2960,-0.89,0.25,-0.06,20.10,10.75,-101.31,0
2970,-0.90,0.35,-0.05,19.98,19.33,-121.95,0
2980,-0.92,0.43,-0.01,19.98,27.47,-137.93,0
2990,-0.92,0.50,0.03,18.05,35.79,-150.77,0
3000,-0.92,0.57,0.07,13.12,43.55,-161.57,0
3010,-0.93,0.65,0.10,5.15,51.61,-171.88,0
3020,-0.94,0.72,0.12,-4.85,60.50,-181.86,0
3030,-0.94,0.79,0.13,-15.98,69.27,-190.81,0
3040,-0.96,0.85,0.14,-27.12,76.99,-197.92,0
3050,-0.97,0.94,0.16,-37.62,85.18,-202.31,0
3060,-1.00,1.02,0.16,-48.52,94.52,-200.91,0
3070,-0.95,1.05,0.18,-51.98,102.06,-198.79,0
3080,-0.92,1.07,0.21,-52.40,105.60,-196.31,0
3090,-0.90,1.14,0.24,-54.55,105.65,-192.19,0
3100,-0.94,1.22,0.25,-57.16,105.96,-188.01,0
3110,-0.89,1.25,0.23,-57.40,108.20,-185.47,0
3120,-0.83,1.21,0.24,-56.56,104.68,-180.97,0
3130,-0.79,1.22,0.23,-57.05,100.88,-174.32,0
3140,-0.74,1.26,0.22,-59.95,96.42,-165.44,0
3150,-0.70,1.33,0.22,-65.61,88.65,-155.49,0
3160,-0.64,1.40,0.17,-71.24,84.54,-148.89,0
3170,-0.43,1.35,0.02,-71.19,74.08,-145.69,0
3180,-0.29,1.28,-0.06,-62.11,54.85,-141.58,0
3190,-0.27,1.34,-0.11,-47.76,43.89,-135.53,0
3200,-0.25,1.34,-0.13,-34.14,34.66,-126.84,0
3210,-0.16,1.30,-0.11,-26.94,24.64,-115.10,0
3220,-0.12,1.34,-0.06,-28.16,22.03,-100.84,0
3230,-0.06,1.36,-0.07,-33.04,31.17,-89.21,0
3240,0.13,1.28,-0.06,-38.12,30.31,-78.37,0
3250,0.22,1.25,-0.02,-45.11,13.85,-62.87,0
3260,0.17,1.37,0.02,-52.76,9.60,-47.24,0
3270,0.22,1.45,-0.01,-56.69,23.04,-34.34,0
3280,0.30,1.34,0.00,-59.10,29.21,-20.01,0
3290,0.29,1.26,0.02,-65.85,31.64,-1.92,0
3300,0.21,1.27,0.03,-74.31,36.16,18.50,0
3310,0.09,1.28,0.06,-80.72,37.24,35.94,0
3320,0.02,1.25,0.07,-82.71,38.43,46.46,0
3330,-0.00,1.16,0.08,-80.18,36.53,50.96,0
3340,-0.07,1.07,0.12,-76.36,23.47,52.09,0
3350,-0.13,1.07,0.16,-73.22,10.54,51.95,0
3360,-0.14,1.43,-0.43,-63.13,33.88,57.15,0
3370,-0.59,1.69,-1.74,-23.79,96.34,77.11,0
3380,-1.88,1.39,0.16,6.03,60.83,89.71,0
3390,-1.34,0.75,0.28,-57.44,18.96,68.48,0
3400,-0.07,0.83,-1.02,-80.55,44.72,111.30,0
3410,-0.26,1.23,-0.55,-49.13,-18.95,196.05,0
3420,-0.72,0.82,-0.22,-34.68,-50.34,221.85,0
3430,-0.90,0.88,0.03,-49.13,-46.46,169.83,0
3440,-0.35,1.40,-0.19,-63.50,2.66,89.44,0
3450,-0.51,1.00,-0.33,-42.51,-4.37,50.48,0
3460,-0.63,0.88,-0.15,-8.94,-36.83,32.91,0
3470,-0.57,0.89,-0.13,3.68,-44.00,23.68,0
3480,-0.53,0.87,-0.14,-4.51,-35.27,20.36,0
3490,-0.58,0.86,-0.11,-15.69,-20.73,16.05,0
3500,-0.63,0.85,-0.05,-18.05,-14.92,10.74,0
3510,-0.64,0.87,-0.02,-11.89,-8.98,6.44,0
3520,-0.61,0.82,-0.11,-2.59,-4.47,3.97,0
3530,-0.59,0.80,-0.16,5.47,-7.15,3.95,0
3540,-0.58,0.82,-0.14,5.58,-9.00,3.34,0
3550,-0.57,0.82,-0.14,-0.69,-6.32,2.02,0
3560,-0.57,0.82,-0.16,-5.71,-3.56,1.82,0
3570,-0.57,0.80,-0.17,-6.34,-4.48,1.97,0
3580,-0.57,0.81,-0.16,-5.11,-8.46,2.86,0
3590,-0.55,0.81,-0.18,-5.15,-9.28,3.50,0
3600,-0.56,0.81,-0.17,-6.15,-12.12,2.67,0
3610,-0.55,0.83,-0.15,-8.47,-12.61,1.27,0
3620,-0.56,0.83,-0.14,-10.50,-11.10,-0.67,0
3630,-0.58,0.83,-0.11,-10.32,-9.94,-2.53,0
3640,-0.58,0.82,-0.11,-8.00,-8.60,-3.79,0
3650,-0.58,0.82,-0.12,-4.41,-8.19,-2.96,0
3660,-0.56,0.81,-0.15,-0.94,-10.50,0.18,0
3670,-0.55,0.82,-0.15,1.55,-13.31,2.67,0
3680,-0.55,0.82,-0.15,0.89,-14.40,3.15,0
3690,-0.56,0.81,-0.14,-2.40,-14.02,2.41,0
3700,-0.55,0.82,-0.14,-5.48,-13.47,1.80,0
3710,-0.55,0.83,-0.13,-6.20,-12.98,1.72,0
3720,-0.56,0.82,-0.13,-4.47,-14.43,0.48,0
3730,-0.57,0.83,-0.09,-3.21,-15.15,0.27,0
3740,-0.61,0.81,-0.05,-4.11,-11.20,0.98,0
3750,-0.59,0.82,-0.08,-3.52,-5.40,3.12,0
3760,-0.57,0.82,-0.10,1.02,-5.31,9.02,0
3770,-0.57,0.82,-0.10,5.66,-6.69,15.22,0
3780,-0.56,0.82,-0.09,6.53,-6.05,19.23,0
3790,-0.56,0.83,-0.08,4.68,-2.31,22.90,0
3800,-0.54,0.84,-0.11,4.02,0.09,26.89,0
3810,-0.51,0.84,-0.13,5.14,-1.80,30.80,0
3820,-0.53,0.85,-0.12,5.03,-3.89,32.91,0
3830,-0.53,0.85,-0.12,2.24,-3.11,32.10,0
3840,-0.54,0.86,-0.11,-1.35,-1.88,31.15,0
3850,-0.51,0.85,-0.12,-4.18,-0.73,32.41,0
3860,-0.52,0.85,-0.13,-5.63,-1.88,37.02,0
3870,-0.50,0.88,-0.11,-8.34,-2.20,42.05,0
3880,-0.53,0.87,-0.13,-11.88,0.47,45.94,0
3890,-0.54,0.87,-0.13,-15.09,0.66,48.95,0
3900,-0.52,0.90,-0.11,-20.21,3.27,53.67,0
3910,-0.53,0.92,-0.10,-25.99,7.01,61.70,0
3920,-0.53,0.98,-0.13,-29.95,9.92,71.73,0
3930,-0.53,1.01,-0.15,-31.53,8.58,83.18,0
3940,-0.52,1.08,-0.18,-32.31,8.07,94.31,0
3950,-0.60,1.19,-0.21,-31.77,10.87,102.92,0
3960,-0.84,1.44,-0.30,-26.60,14.21,104.57,0
3970,-0.91,1.64,0.09,-18.44,25.65,99.49,0
3980,-0.80,1.40,0.07,-19.14,23.34,104.05,0
3990,-0.86,1.31,-0.12,-6.76,8.03,118.49,0
4000,-0.96,1.48,-0.10,12.34,-0.96,133.87,0
4010,-1.03,1.47,-0.04,19.45,-5.11,146.48,0
4020,-1.07,1.36,-0.03,11.66,-6.28,158.95,0
4030,-1.24,1.31,-0.08,-2.21,-6.55,175.11,0
4040,-1.38,1.23,-0.20,-12.18,-7.19,191.87,0
4050,-1.44,1.09,-0.30,-14.29,-4.95,211.70,0
4060,-1.35,0.80,-0.36,-14.15,0.42,234.42,0
4070,-1.08,0.60,-0.23,-16.67,-6.80,250.13,0
4080,-1.49,0.75,0.06,-21.04,3.27,250.13,0
4090,-2.00,0.46,0.14,-23.49,20.87,240.28,0
4100,-1.46,0.11,0.11,-14.73,-4.27,171.37,0
4110,-1.13,0.25,0.18,12.15,-24.85,110.17,0
4120,-1.51,0.55,0.20,44.18,-42.82,58.48,0
4130,-1.28,0.47,0.28,69.95,-31.14,-2.37,0
4140,-1.04,0.21,0.27,74.52,-27.53,-40.34,0
4150,-0.96,0.20,0.23,63.41,-35.25,-58.73,0
4160,-0.88,0.24,0.11,53.79,-39.21,-71.20,0
4170,-0.81,0.21,0.05,55.25,-50.66,-84.48,0
4180,-0.75,0.21,0.06,60.97,-58.60,-102.06,0
4190,-0.69,0.23,0.08,58.60,-62.50,-124.31,0
4200,-0.67,0.27,0.08,44.03,-71.56,-148.44,0
4210,-0.72,0.37,0.02,25.01,-72.53,-171.51,0
4220,-0.76,0.50,-0.08,12.05,-68.72,-192.58,0
4230,-0.75,0.60,-0.14,5.55,-66.89,-209.98,0
4240,-0.74,0.66,-0.18,-1.72,-65.08,-224.59,0
4250,-0.72,0.75,-0.23,-12.03,-62.60,-235.40,0
4260,-0.71,0.84,-0.33,-20.44,-59.88,-242.53,0
4270,-0.70,0.91,-0.41,-21.64,-60.69,-246.53,0
4280,-0.70,1.01,-0.47,-16.15,-62.56,-249.08,0
4290,-0.71,1.10,-0.47,-8.89,-60.62,-250.14,0
4300,-0.78,1.12,-0.47,-8.43,-56.21,-250.11,0
4310,-0.78,1.15,-0.46,-9.50,-46.64,-250.05,0
4320,-0.82,1.20,-0.42,-10.41,-35.64,-250.14,0
4330,-0.83,1.23,-0.39,-12.79,-24.06,-250.14,0
4340,-0.81,1.27,-0.36,-15.21,-14.21,-250.14,0
4350,-0.83,1.33,-0.31,-17.82,-10.62,-250.14,0
4360,-0.88,1.39,-0.27,-21.36,-7.34,-250.14,0
4370,-0.85,1.41,-0.27,-23.18,0.30,-250.14,0
4380,-0.80,1.41,-0.29,-22.05,4.85,-250.07,0
4390,-0.71,1.45,-0.31,-20.69,5.27,-243.37,0
4400,-0.66,1.52,-0.33,-20.97,-0.42,-225.10,0
4410,-0.59,1.74,-0.30,-22.12,-7.83,-205.22,0
4420,-0.55,1.98,-0.27,-21.76,-10.56,-189.60,0
4430,-0.27,1.93,-0.28,-15.89,-14.25,-184.77,0
4440,0.04,1.82,-0.28,-2.98,-21.40,-179.42,0
4450,0.15,1.80,-0.27,14.07,-28.16,-166.89,0
4460,0.32,1.77,-0.26,26.23,-42.50,-148.15,0
4470,0.50,1.74,-0.28,28.44,-52.94,-121.18,0
4480,0.61,1.73,-0.32,22.68,-49.24,-91.14,0
4490,0.71,1.76,-0.32,11.55,-36.64,-62.66,0
4500,0.72,1.84,-0.26,-2.58,-19.32,-33.82,0
4510,0.71,1.85,-0.22,-12.79,-0.04,-6.50,0
4520,0.68,1.76,-0.15,-13.87,5.82,19.97,0
4530,0.55,1.73,-0.01,-10.69,1.14,46.65,0
4540,0.40,1.66,0.11,-9.55,-4.63,71.85,0
4550,0.01,1.70,-0.03,-10.28,-2.22,92.99,0
4560,-0.80,1.82,-1.14,4.37,68.62,104.39,0
4570,-2.00,1.32,0.33,38.72,143.21,91.66,0
4580,-1.03,-0.12,-0.17,5.32,104.25,27.77,0
4590,1.05,0.61,-1.26,3.34,-6.67,116.34,0
4600,-1.11,2.00,0.22,-18.35,-25.37,250.13,0
4610,-0.90,1.02,0.23,-126.90,54.73,213.54,0
4620,-0.51,-0.28,-0.65,-181.50,139.58,165.05,0
4630,-0.37,0.33,-0.81,-131.95,70.85,169.10,0
4640,-0.40,1.19,-0.38,-49.76,-26.73,181.97,0
4650,-1.10,1.69,0.43,-1.72,-46.75,151.63,0
4660,-0.85,1.51,0.34,-8.78,-12.17,77.99,0
4670,-0.48,0.55,-0.35,-2.07,19.95,43.40,0
4680,-0.57,0.77,-0.27,11.53,-14.74,45.66,0
4690,-0.65,0.92,0.01,8.05,-24.27,48.14,0
4700,-0.70,0.83,0.12,-3.24,-7.24,43.51,0
4710,-0.62,0.80,-0.10,-6.74,9.71,35.51,0
4720,-0.61,0.78,-0.16,3.59,0.98,30.20,0
4730,-0.61,0.79,-0.12,13.34,-14.28,22.59,0
4740,-0.58,0.81,-0.12,10.34,-17.02,15.86,0
4750,-0.60,0.78,-0.11,-0.37,-11.50,13.01,0
4760,-0.62,0.78,-0.11,-5.29,-11.45,13.23,0
4770,-0.62,0.79,-0.08,-5.02,-16.72,16.57,0
4780,-0.60,0.80,-0.06,-4.79,-19.56,20.73,0
4790,-0.59,0.80,-0.06,-5.81,-18.19,21.16,0
4800,-0.62,0.81,-0.03,-6.98,-13.51,17.63,0
4810,-0.61,0.82,-0.03,-6.44,-8.55,12.40,0
4820,-0.60,0.82,-0.03,-3.15,-6.67,8.63,0
4830,-0.61,0.80,-0.04,0.22,-6.06,7.60,0
4840,-0.61,0.81,-0.03,1.85,-4.48,9.16,0
4850,-0.59,0.81,-0.04,3.01,-2.72,11.73,0
4860,-0.58,0.82,-0.06,5.16,-1.79,13.37,0
4870,-0.58,0.81,-0.09,7.45,-2.88,11.58,0
4880,-0.56,0.81,-0.12,8.21,-6.24,10.00,0
4890,-0.53,0.80,-0.12,5.95,-9.90,12.50,0
4900,-0.58,0.80,-0.09,1.79,-12.01,17.29,0
4910,-0.58,0.83,-0.06,-1.02,-11.92,18.46,0
4920,-0.56,0.83,-0.07,-0.06,-10.30,16.97,0
4930,-0.57,0.83,-0.05,3.31,-10.92,15.31,0
4940,-0.59,0.82,-0.03,5.05,-9.92,15.45,0
4950,-0.56,0.83,-0.03,3.74,-6.95,18.08,0
4960,-0.59,0.82,-0.06,1.69,-4.19,24.16,0
4970,-0.57,0.84,-0.04,0.09,-4.39,29.27,0
4980,-0.54,0.84,-0.05,-2.15,-3.50,34.08,0
4990,-0.57,0.86,-0.04,-3.47,-1.58,37.54,0
5000,-0.52,0.86,-0.04,-3.15,-0.90,38.74,0
5010,-0.49,0.88,-0.07,-1.89,-1.94,40.98,0
5020,-0.51,0.86,-0.10,-0.63,-6.02,42.40,0
5030,-0.47,0.88,-0.06,-1.45,-11.52,41.98,0
5040,-0.51,0.87,-0.05,-5.10,-15.40,41.50,0
5050,-0.53,0.87,-0.10,-7.79,-20.27,40.31,0
5060,-0.53,0.88,-0.05,-10.09,-25.86,41.64,0
5070,-0.55,0.93,-0.03,-16.21,-30.13,46.04,0
5080,-0.53,0.92,-0.06,-21.09,-34.28,53.07,0
5090,-0.56,0.96,-0.08,-23.49,-39.91,61.85,0
5100,-0.56,1.00,-0.12,-25.31,-40.87,70.21,0
5110,-0.61,1.09,-0.11,-26.32,-35.05,78.73,0
5120,-0.60,1.14,-0.09,-28.91,-31.54,86.90,0
5130,-0.59,1.14,-0.04,-33.07,-39.43,96.04,0
5140,-0.58,1.18,0.01,-36.14,-45.26,104.15,0
5150,-0.66,1.23,-0.11,-36.11,-53.30,111.74,0
5160,-1.07,1.61,-0.26,-25.52,-60.24,112.82,0
5170,-1.05,1.71,0.36,-20.74,-50.20,106.66,0
5180,-0.94,1.34,0.29,-37.25,-50.13,116.90,0
5190,-1.15,1.35,0.24,-37.05,-59.23,140.90,0
5200,-1.29,1.44,0.22,-19.58,-60.87,166.62,0
5210,-1.41,1.38,0.18,4.64,-64.38,194.43,0
5220,-1.48,1.03,0.01,30.00,-73.10,223.30,0
5230,-1.47,0.74,-0.05,48.86,-81.63,248.47,0
5240,-1.37,0.52,-0.04,48.85,-83.02,250.13,0
5250,-1.54,0.24,-0.02,27.96,-89.95,249.82,0
5260,-2.00,0.05,0.07,-5.37,-84.23,240.11,0
5270,-1.42,0.29,0.40,-44.89,-31.60,156.31,0
5280,-0.76,0.83,0.16,-78.40,-0.22,94.94,0
5290,-1.27,0.91,-0.05,-66.37,-49.73,70.18,0
5300,-0.83,0.63,-0.06,-10.99,-70.60,34.44,0
5310,-0.85,0.54,-0.15,60.69,-82.69,13.12,0
5320,-0.81,0.49,-0.14,128.88,-108.40,-14.73,0
5330,-0.68,0.33,-0.12,173.50,-115.76,-48.10,0
5340,-0.56,0.16,-0.02,180.94,-128.57,-79.13,0
5350,-0.56,0.11,0.02,156.31,-140.55,-103.47,0
5360,-0.70,0.09,-0.09,124.35,-131.46,-123.46,0
5370,-0.66,0.00,-0.19,100.63,-126.51,-141.66,0
5380,-0.64,0.00,-0.17,79.13,-123.09,-154.09,0
5390,-0.66,0.19,-0.15,50.47,-115.18,-162.77,0
5400,-0.71,0.38,-0.21,19.23,-107.05,-172.76,0
5410,-0.74,0.50,-0.33,0.23,-101.60,-189.93,0
5420,-0.72,0.63,-0.42,-1.14,-101.71,-211.44,0
5430,-0.73,0.77,-0.45,7.13,-106.49,-229.95,0
5440,-0.76,0.85,-0.47,17.05,-111.63,-244.37,0
5450,-0.77,0.91,-0.49,25.50,-115.15,-250.14,0
5460,-0.77,0.97,-0.48,30.32,-119.22,-250.14,0
5470,-0.79,1.06,-0.47,31.60,-119.94,-250.00,0
5480,-0.80,1.13,-0.46,31.11,-118.34,-250.14,0
5490,-0.84,1.19,-0.50,31.24,-114.57,-250.14,0
5500,-0.83,1.24,-0.51,32.68,-113.40,-250.14,0
5510,-0.88,1.34,-0.49,29.77,-106.73,-250.14,0
5520,-0.89,1.40,-0.51,23.81,-94.79,-250.14,0
5530,-0.82,1.42,-0.51,21.87,-84.40,-250.14,0
5540,-0.74,1.45,-0.55,23.46,-78.74,-247.32,0
5550,-0.72,1.51,-0.58,27.89,-82.00,-238.05,0
5560,-0.78,1.59,-0.58,34.49,-86.95,-228.76,0
5570,-0.78,1.62,-0.56,40.61,-88.08,-222.20,0
5580,-0.66,1.67,-0.55,43.77,-84.12,-214.31,0
5590,-0.50,1.75,-0.52,43.05,-81.42,-201.57,0
5600,-0.33,1.72,-0.50,38.16,-79.81,-188.44,0
5610,-0.12,1.63,-0.48,30.79,-80.76,-174.08,0
5620,0.01,1.65,-0.41,23.05,-79.14,-154.95,0
5630,0.17,1.65,-0.33,13.34,-74.18,-132.61,0
5640,0.41,1.66,-0.28,-0.54,-72.82,-104.75,0
5650,0.52,1.83,-0.28,-14.21,-63.19,-69.68,0
5660,0.57,1.98,-0.30,-21.43,-47.05,-36.54,0
5670,0.73,1.88,-0.29,-21.59,-36.42,-10.94,0
5680,0.79,1.80,-0.19,-19.12,-33.13,12.06,0
5690,0.72,1.77,-0.09,-17.78,-24.86,33.40,0
5700,0.61,1.72,0.01,-18.74,-23.03,54.94,0
5710,0.44,1.65,0.07,-21.15,-21.71,75.50,0
5720,-0.08,1.59,-0.14,-22.34,-11.97,90.52,0
5730,-1.14,1.72,-1.25,-4.79,78.11,81.00,0
5740,-1.96,1.27,-0.86,51.18,221.47,42.24,0
5750,-1.84,-0.76,0.93,23.15,172.59,-48.57,0
5760,1.43,-0.54,-1.74,-20.69,70.03,-51.95,0
5770,-0.04,1.99,-0.70,19.72,23.53,189.33,0
5780,-1.87,1.89,0.61,-23.99,19.56,250.13,0
5790,-0.54,-0.07,-0.01,-109.21,55.84,178.24,0
5800,-0.31,-0.15,-0.54,-118.64,96.02,127.76,0
5810,-0.58,1.20,-0.31,-69.61,42.76,120.65,0
5820,-0.93,1.57,0.21,-22.92,6.64,116.06,0
5830,-0.80,0.90,0.22,-3.50,12.89,87.95,0
5840,-0.63,0.76,-0.06,11.45,16.81,62.98,0
5850,-0.65,0.91,-0.06,20.64,6.78,54.24,0
5860,-0.60,0.85,-0.06,13.89,6.29,48.19,0
5870,-0.65,0.79,0.01,7.35,14.10,40.56,0
5880,-0.66,0.80,0.01,9.42,16.00,34.58,0
5890,-0.61,0.76,-0.12,18.18,13.75,31.80,0
5900,-0.60,0.75,-0.16,27.02,-0.28,29.60,0
5910,-0.58,0.79,-0.14,26.78,-11.90,26.25,0
5920,-0.58,0.78,-0.12,16.72,-14.75,23.69,0
5930,-0.61,0.77,-0.11,5.20,-13.05,22.94,0
5940,-0.62,0.76,-0.08,-1.51,-14.51,22.46,0
5950,-0.63,0.78,-0.03,-4.16,-15.47,21.60,0
5960,-0.62,0.80,-0.01,-4.33,-13.40,19.94,0
5970,-0.63,0.80,0.00,-2.27,-10.25,16.66,0
5980,-0.62,0.82,0.00,1.32,-8.01,13.37,0
5990,-0.62,0.82,0.01,4.89,-5.42,11.08,0
6000,-0.61,0.80,-0.02,7.21,-2.21,9.53,0
6010,-0.61,0.81,-0.02,9.56,0.02,10.21,0
6020,-0.61,0.79,-0.04,13.34,0.08,11.13,0
6030,-0.59,0.81,-0.06,16.92,-1.51,11.67,0
6040,-0.58,0.80,-0.07,18.34,-3.68,11.37,0
6050,-0.57,0.79,-0.07,15.15,-4.17,12.17,0
6060,-0.58,0.80,-0.08,10.34,-4.41,15.56,0
6070,-0.58,0.80,-0.09,9.14,-7.52,18.07,0
6080,-0.58,0.81,-0.07,10.15,-10.63,17.77,0
6090,-0.58,0.82,-0.05,9.43,-10.25,15.53,0
6100,-0.59,0.82,-0.03,7.59,-6.76,14.53,0
6110,-0.59,0.83,-0.02,7.46,-3.79,15.05,0
6120,-0.58,0.82,-0.04,9.00,-1.03,16.73,0
6130,-0.54,0.82,-0.05,10.91,-2.92,20.11,0
6140,-0.57,0.83,-0.05,10.90,-2.60,25.05,0
6150,-0.55,0.84,-0.05,9.01,-1.20,27.63,0
6160,-0.56,0.83,-0.06,7.79,-0.08,29.00,0
6170,-0.53,0.85,-0.07,7.63,0.10,29.92,0
6180,-0.51,0.85,-0.09,8.18,-0.83,31.50,0
6190,-0.52,0.84,-0.08,8.36,-2.47,33.15,0
6200,-0.55,0.84,-0.08,6.26,-3.18,33.89,0
6210,-0.56,0.83,-0.09,2.80,-3.79,34.80,0
6220,-0.53,0.88,0.00,-1.76,-3.65,38.22,0
6230,-0.54,0.90,-0.03,-6.31,0.83,43.53,0
6240,-0.53,0.87,-0.05,-5.60,-5.12,48.34,0
6250,-0.51,0.90,-0.05,-4.27,-11.75,53.98,0
6260,-0.52,0.91,-0.02,-7.13,-20.83,59.14,0
6270,-0.50,0.93,0.07,-14.31,-31.97,63.08,0
6280,-0.64,1.00,0.04,-25.40,-55.85,66.11,0
6290,-0.84,1.17,0.17,-30.91,-71.56,64.08,0
6300,-0.89,1.53,0.40,-37.88,-71.98,65.40,0
6310,-1.02,1.76,0.25,-35.66,-73.19,77.51,0
6320,-1.02,1.64,0.21,-8.89,-85.37,96.21,0
6330,-1.12,1.39,0.14,28.85,-101.69,122.63,0
6340,-1.16,1.40,0.08,63.07,-117.31,152.15,0
6350,-1.31,1.47,0.13,81.67,-127.73,182.76,0
6360,-1.43,1.25,0.17,83.47,-133.13,208.53,0
6370,-1.39,0.95,0.25,78.52,-136.83,229.51,0
6380,-1.31,0.62,0.28,73.95,-145.74,246.89,0
6390,-1.57,0.19,0.26,73.84,-157.90,249.30,0
6400,-2.00,-0.15,0.26,75.91,-156.44,207.87,0
6410,-1.26,-0.10,0.46,68.24,-126.66,125.79,0
6420,-0.94,0.22,0.50,34.12,-114.25,73.35,0
6430,-1.20,0.34,0.29,-5.21,-118.95,37.16,0
6440,-0.84,0.09,0.05,-17.39,-116.83,2.60,0
6450,-0.78,0.04,-0.08,-1.25,-127.14,-10.63,0
6460,-0.77,0.19,-0.14,24.15,-141.92,-19.02,0
6470,-0.70,0.26,-0.20,41.57,-151.34,-33.48,0
6480,-0.68,0.26,-0.26,47.88,-159.06,-52.68,0
6490,-0.72,0.29,-0.37,50.27,-163.05,-74.19,0
6500,-0.71,0.31,-0.50,56.43,-165.60,-98.60,0
6510,-0.71,0.31,-0.62,66.10,-169.76,-122.35,0
6520,-0.73,0.37,-0.69,74.51,-174.02,-144.05,0
6530,-0.73,0.44,-0.74,78.07,-172.49,-162.23,0
6540,-0.78,0.46,-0.78,76.98,-170.55,-172.79,0
6550,-0.80,0.48,-0.81,72.73,-164.57,-178.46,0
6560,-0.81,0.55,-0.85,66.84,-156.27,-181.28,0
6570,-0.82,0.61,-0.86,60.40,-150.15,-183.05,0
6580,-0.86,0.71,-0.85,53.02,-144.08,-188.91,0
6590,-0.89,0.80,-0.88,46.40,-131.45,-201.02,0
6600,-0.89,0.83,-0.88,42.72,-115.56,-214.34,0
6610,-0.93,0.86,-0.84,38.95,-100.45,-225.05,0
6620,-0.97,0.94,-0.78,33.31,-83.89,-233.45,0
6630,-0.98,1.00,-0.72,26.43,-68.18,-238.76,0
6640,-0.98,1.05,-0.67,20.31,-51.94,-239.85,0
6650,-0.95,1.09,-0.62,15.11,-36.60,-236.47,0
6660,-0.90,1.19,-0.60,11.29,-26.48,-228.18,0
6670,-0.89,1.32,-0.64,12.50,-24.45,-216.02,0
6680,-0.92,1.46,-0.66,21.40,-25.73,-204.71,0
6690,-0.85,1.55,-0.66,35.82,-24.31,-196.40,0
6700,-0.72,1.51,-0.58,49.01,-28.98,-189.12,0
6710,-0.58,1.46,-0.47,53.79,-40.11,-181.16,0
6720,-0.42,1.49,-0.38,51.18,-48.89,-169.76,0
6730,-0.29,1.48,-0.34,47.37,-58.81,-153.35,0
6740,-0.20,1.45,-0.32,45.97,-77.01,-133.83,0
6750,-0.12,1.51,-0.35,50.13,-91.25,-115.18,0
6760,-0.04,1.48,-0.39,59.26,-107.98,-102.53,0
6770,0.05,1.46,-0.44,71.76,-122.14,-94.80,0
6780,0.12,1.51,-0.48,86.70,-124.44,-87.56,0
6790,0.20,1.46,-0.45,99.21,-123.59,-81.73,0
6800,0.33,1.39,-0.35,102.12,-125.13,-71.51,0
6810,0.35,1.40,-0.27,97.08,-118.63,-51.62,0
6820,0.35,1.40,-0.18,90.68,-110.83,-28.66,0
6830,0.33,1.40,-0.11,86.27,-104.66,-5.98,0
6840,0.28,1.37,-0.08,85.70,-98.39,15.05,0
6850,0.21,1.34,-0.01,85.98,-94.69,35.52,0
6860,0.09,1.34,0.06,82.21,-83.84,54.25,0
6870,-0.02,1.30,0.11,74.34,-69.77,69.94,0
6880,-0.10,1.20,0.15,64.44,-57.76,82.73,0
6890,-0.68,1.05,-0.04,53.66,-41.56,89.16,0
6900,-1.35,0.88,-0.39,49.94,31.33,72.45,0
6910,-2.00,0.12,0.49,51.51,119.50,20.76,0
6920,-1.86,-1.71,0.70,13.50,147.85,-113.60,0
6930,1.33,-1.17,-1.68,22.56,81.76,-119.10,0
6940,0.64,2.00,-0.63,75.02,-10.89,153.04,0
6950,-2.00,2.00,0.96,18.73,-2.66,250.13,0
6960,-0.61,0.02,0.10,-113.04,69.17,146.08,0
6970,0.03,-0.83,-0.69,-157.35,139.99,100.19,0
6980,-0.77,0.95,-0.39,-118.08,79.03,122.82,0
6990,-0.89,1.56,0.03,-64.21,18.31,130.83,0
7000,-0.48,0.93,-0.17,-24.35,20.74,110.96,0
7010,-0.58,0.73,-0.09,10.89,6.09,77.11,0
7020,-0.90,0.99,0.26,28.49,-2.84,44.40,0
7030,-0.65,0.87,-0.01,20.10,13.68,31.65,0
7040,-0.57,0.75,-0.20,13.25,16.60,36.86,0
7050,-0.66,0.81,-0.01,10.49,7.31,36.25,0
7060,-0.68,0.87,0.04,7.63,11.69,29.44,0
7070,-0.62,0.77,-0.06,8.06,16.00,22.40,0
7080,-0.60,0.74,-0.17,13.49,10.49,18.66,0
7090,-0.61,0.76,-0.14,17.52,-4.15,18.82,0
7100,-0.60,0.76,-0.13,12.21,-11.46,20.69,0
7110,-0.61,0.77,-0.11,2.17,-11.59,22.98,0
7120,-0.62,0.79,-0.08,-5.26,-11.71,23.92,0
7130,-0.61,0.78,-0.07,-7.22,-13.67,23.66,0
7140,-0.61,0.79,-0.05,-5.48,-16.79,22.57,0
7150,-0.59,0.80,-0.02,-3.60,-16.49,19.77,0
7160,-0.62,0.81,-0.02,-2.46,-13.00,16.67,0
7170,-0.62,0.81,-0.02,-0.71,-10.54,13.22,0
7180,-0.61,0.79,-0.03,2.60,-9.93,10.46,0
7190,-0.61,0.80,-0.03,6.28,-10.58,9.66,0
7200,-0.61,0.79,-0.02,9.05,-11.53,10.08,0
7210,-0.59,0.79,-0.03,9.31,-10.58,10.99,0
7220,-0.61,0.80,-0.04,7.66,-9.24,13.36,0
7230,-0.60,0.81,-0.06,7.11,-10.21,14.18,0
7240,-0.57,0.81,-0.06,7.57,-13.16,14.17,0
7250,-0.61,0.80,-0.04,6.71,-13.85,13.60,0
7260,-0.61,0.81,-0.02,4.30,-11.72,11.52,0
7270,-0.59,0.82,-0.01,2.87,-8.28,10.00,0
7280,-0.59,0.82,-0.02,3.60,-6.08,9.88,0
7290,-0.59,0.81,-0.02,5.19,-5.51,11.17,0
7300,-0.58,0.81,-0.02,5.63,-4.89,12.90,0
7310,-0.58,0.81,-0.03,4.70,-3.02,15.27,0
7320,-0.59,0.82,-0.04,4.06,-2.46,17.21,0
7330,-0.58,0.82,-0.03,3.46,-2.19,18.40,0
7340,-0.57,0.82,-0.04,2.38,-1.07,19.68,0
7350,-0.56,0.82,-0.03,1.14,-0.79,21.60,0
7360,-0.56,0.85,-0.03,-0.29,-1.75,23.78,0
7370,-0.52,0.84,-0.05,-0.89,-3.89,25.84,0
7380,-0.54,0.84,-0.06,-0.04,-7.16,27.05,0
7390,-0.51,0.84,-0.05,-0.53,-10.24,27.26,0
7400,-0.52,0.85,-0.03,-2.44,-10.75,27.79,0
7410,-0.53,0.84,-0.00,-4.97,-13.19,29.26,0
7420,-0.57,0.84,0.00,-6.70,-16.57,31.85,0
7430,-0.55,0.88,0.04,-9.12,-21.37,36.87,0
7440,-0.53,0.87,0.03,-10.44,-19.99,42.89,0
7450,-0.55,0.88,0.05,-13.11,-30.35,50.02,0
7460,-0.58,0.93,-0.03,-15.44,-31.54,55.33,0
7470,-0.53,0.91,-0.07,-17.42,-37.31,60.84,0
7480,-0.54,0.88,-0.16,-20.18,-41.24,67.90,0
7490,-0.55,0.95,-0.19,-23.69,-41.89,74.63,0
7500,-0.58,1.07,-0.19,-30.53,-36.29,80.26,0
7510,-0.56,1.06,-0.15,-40.47,-31.06,85.56,0
7520,-0.56,1.06,-0.12,-50.43,-33.95,92.21,0
7530,-0.57,1.10,-0.10,-55.13,-37.97,99.74,0
7540,-0.64,1.20,-0.13,-55.77,-48.69,107.79,0
7550,-0.92,1.46,-0.18,-52.15,-59.23,111.69,0
7560,-0.92,1.60,0.33,-55.36,-65.56,109.16,0
7570,-0.87,1.33,0.20,-70.37,-81.80,116.97,0
7580,-1.03,1.37,0.26,-67.35,-108.17,134.89,0
7590,-1.27,1.64,0.36,-55.29,-127.24,154.65,0
7600,-1.56,1.66,0.38,-39.21,-134.92,173.01,0
7610,-1.68,1.39,0.20,-12.33,-115.63,189.59,0
7620,-1.70,0.96,0.05,28.40,-117.70,213.20,0
7630,-1.34,0.49,0.09,73.12,-136.84,242.69,0
7640,-1.10,0.44,0.05,102.12,-150.90,250.13,0
7650,-1.78,0.66,-0.18,112.37,-159.05,250.04,0
7660,-2.00,0.80,-0.17,129.23,-157.06,224.52,0
7670,-1.34,0.59,0.27,156.13,-96.21,123.78,0
7680,-1.29,0.33,-0.08,182.49,-60.78,59.15,0
7690,-1.28,0.15,-0.04,212.60,-108.15,8.56,0
7700,-0.90,-0.05,0.02,225.16,-87.89,-35.63,0
7710,-0.75,-0.41,0.01,201.47,-94.66,-54.05,0
7720,-0.78,-0.43,0.34,135.56,-116.34,-65.21,0
7730,-0.80,0.00,0.40,38.32,-61.76,-85.25,0
7740,-0.80,0.29,0.10,-41.98,-21.10,-110.76,0
7750,-0.67,0.33,-0.05,-68.18,-15.53,-139.12,0
7760,-0.55,0.39,-0.16,-54.52,-12.96,-166.63,0
7770,-0.58,0.50,-0.18,-24.08,-35.15,-189.22,0
7780,-0.66,0.61,-0.19,7.24,-50.02,-209.34,0
7790,-0.70,0.60,-0.21,29.55,-54.95,-226.47,0
7800,-0.74,0.62,-0.19,36.40,-62.68,-237.82,0
7810,-0.80,0.72,-0.21,30.82,-61.15,-244.29,0
7820,-0.77,0.81,-0.24,21.35,-57.38,-248.85,0
7830,-0.77,0.86,-0.27,12.29,-53.06,-247.29,0
7840,-0.80,0.91,-0.32,3.34,-49.61,-241.25,0
7850,-0.78,1.01,-0.36,-0.53,-42.08,-241.85,0
7860,-0.80,1.10,-0.36,-1.15,-36.02,-249.21,0
7870,-0.83,1.15,-0.37,-1.97,-29.52,-250.14,0
7880,-0.85,1.19,-0.38,-1.72,-23.02,-250.05,0
7890,-0.90,1.25,-0.38,2.53,-15.93,-250.10,0
7900,-0.92,1.32,-0.35,9.74,-8.00,-250.14,0
7910,-0.92,1.35,-0.31,16.24,-1.98,-250.14,0
7920,-0.89,1.41,-0.28,19.53,-0.03,-250.14,0
7930,-0.90,1.52,-0.28,18.61,-5.31,-249.85,0
7940,-0.92,1.61,-0.31,15.82,-13.60,-245.26,0
7950,-0.88,1.64,-0.34,13.47,-15.08,-240.22,0
7960,-0.78,1.75,-0.32,10.66,-11.18,-237.05,0
7970,-0.62,1.89,-0.23,4.98,-5.11,-230.95,0
7980,-0.38,1.87,-0.12,-5.74,-5.56,-220.40,0
7990,-0.09,1.85,-0.05,-17.79,-9.45,-200.81,0
8000,0.15,1.91,-0.07,-23.15,-11.72,-170.59,0
8010,0.38,1.94,-0.16,-18.79,-20.02,-134.67,0
8020,0.62,1.92,-0.20,-12.09,-34.29,-100.05,0
8030,0.80,1.96,-0.15,-13.98,-37.85,-72.89,0
8040,0.87,1.97,-0.12,-24.96,-28.15,-49.73,0
8050,0.81,1.97,-0.12,-33.06,-12.83,-22.08,0
8060,0.75,1.92,-0.09,-32.31,2.66,7.11,0
8070,0.69,1.74,-0.03,-29.96,10.05,31.62,0
8080,0.55,1.64,0.04,-30.75,9.90,52.84,0
8090,0.36,1.63,0.09,-32.45,7.24,72.83,0
8100,-0.19,1.76,-0.20,-29.44,20.53,89.58,0
8110,-0.99,1.88,-1.24,-3.60,106.56,95.83,0
8120,-2.00,1.38,0.61,37.78,171.21,74.85,0
8130,-0.87,-0.22,-0.58,16.02,127.70,-3.90,0
8140,1.57,0.25,-1.86,50.76,-1.50,80.46,0
8150,-1.10,2.00,0.14,51.31,-101.91,239.60,0
8160,-1.32,1.28,0.50,-57.96,-15.11,209.13,0
8170,-0.51,-0.33,-0.40,-142.50,88.87,154.18,0
8180,-0.41,0.19,-0.63,-124.27,58.69,157.24,0
8190,-0.62,1.15,-0.23,-60.85,-16.29,175.06,0
8200,-0.97,1.41,0.21,-11.66,-30.18,158.99,0
8210,-0.87,1.41,0.37,-3.13,-17.93,99.21,0
8220,-0.52,0.89,-0.22,-0.31,18.62,53.53,0
8230,-0.64,0.76,-0.13,8.85,3.05,41.76,0
8240,-0.62,0.84,-0.14,6.24,-0.55,39.21,0
8250,-0.64,0.81,-0.05,2.85,-0.50,40.81,0
8260,-0.62,0.82,-0.06,-0.07,2.53,39.88,0
8270,-0.59,0.80,-0.15,1.90,6.59,35.27,0
8280,-0.59,0.78,-0.17,11.47,-2.05,27.53,0
8290,-0.57,0.77,-0.20,20.09,-15.56,21.37,0
8300,-0.58,0.79,-0.14,18.90,-22.76,18.31,0
8310,-0.61,0.80,-0.09,10.46,-19.30,14.57,0
8320,-0.62,0.78,-0.11,4.05,-14.82,10.61,0
8330,-0.62,0.78,-0.11,2.95,-15.89,8.72,0
8340,-0.61,0.78,-0.08,2.36,-17.58,8.25,0
8350,-0.62,0.80,-0.05,-0.07,-15.69,8.38,0
8360,-0.62,0.80,-0.05,-2.43,-9.94,8.75,0
8370,-0.62,0.81,-0.04,-1.99,-5.69,8.32,0
8380,-0.63,0.81,-0.04,1.01,-1.91,7.01,0
8390,-0.62,0.80,-0.06,4.49,0.76,6.50,0
8400,-0.61,0.80,-0.08,7.19,1.26,8.62,0
8410,-0.58,0.80,-0.10,9.11,-0.08,12.74,0
8420,-0.59,0.79,-0.11,10.69,-2.05,16.82,0
8430,-0.59,0.80,-0.10,10.85,-4.24,16.66,0
8440,-0.57,0.80,-0.11,8.99,-3.91,14.78,0
8450,-0.59,0.79,-0.11,6.37,-4.36,15.60,0
8460,-0.58,0.80,-0.11,3.69,-4.96,18.43,0
8470,-0.56,0.82,-0.10,1.66,-5.19,21.08,0
8480,-0.56,0.81,-0.11,0.99,-5.45,22.72,0
8490,-0.59,0.82,-0.10,1.47,-6.15,22.72,0
8500,-0.56,0.82,-0.08,1.15,-5.51,21.89,0
8510,-0.58,0.82,-0.07,-0.53,-2.92,23.96,0
8520,-0.58,0.84,-0.06,-2.61,-0.55,28.62,0
8530,-0.54,0.83,-0.08,-3.64,-0.82,35.87,0
8540,-0.54,0.84,-0.10,-4.15,-4.45,43.76,0
8550,-0.53,0.85,-0.07,-6.26,-8.47,48.38,0
8560,-0.50,0.86,-0.09,-10.02,-9.58,51.37,0
8570,-0.50,0.84,-0.16,-12.08,-11.92,54.47,0
8580,-0.54,0.82,-0.21,-12.60,-18.31,57.91,0
8590,-0.56,0.87,-0.12,-18.18,-20.73,61.29,0
8600,-0.58,0.94,-0.03,-31.61,-18.82,66.65,0
8610,-0.57,0.98,-0.04,-43.62,-20.92,74.43,0
8620,-0.56,0.99,-0.08,-47.92,-29.75,86.31,0
8630,-0.60,1.05,-0.16,-45.32,-35.71,100.01,0
8640,-0.65,1.18,-0.19,-38.54,-30.39,110.63,0
8650,-0.65,1.29,-0.11,-34.01,-19.03,114.29,0
8660,-0.63,1.22,-0.09,-33.70,-18.50,113.37,0
8670,-0.64,1.21,-0.08,-31.16,-20.34,114.32,0
8680,-0.66,1.24,-0.07,-26.90,-21.11,117.89,0
8690,-0.80,1.31,-0.22,-24.88,-32.02,122.44,0
8700,-1.18,1.67,-0.20,-21.95,-39.79,122.46,0
8710,-1.13,1.67,0.31,-32.95,-29.27,120.08,0
8720,-1.10,1.29,0.10,-53.19,-38.95,136.44,0
8730,-1.43,1.41,0.12,-49.48,-51.50,163.00,0
8740,-1.66,1.49,0.12,-30.40,-57.72,186.76,0
8750,-1.67,1.08,-0.07,-3.04,-67.89,213.02,0
8760,-1.57,0.64,-0.18,28.60,-78.37,244.28,0
8770,-1.33,0.43,-0.04,48.31,-85.60,250.13,0
8780,-1.44,0.54,0.01,49.22,-86.31,249.92,0
8790,-2.00,0.63,-0.29,51.87,-78.79,249.11,0
8800,-1.81,0.51,0.14,74.98,-81.48,195.92,0
8810,-1.33,0.51,0.22,100.29,-38.49,107.05,0
8820,-1.63,0.56,0.09,129.00,-54.58,45.73,0
8830,-1.18,0.28,0.05,161.52,-57.85,-16.35,0
8840,-0.93,-0.24,0.02,174.37,-61.42,-52.64,0
8850,-0.95,-0.47,0.18,141.76,-103.34,-71.02,0
8860,-0.98,-0.13,0.67,57.31,-78.39,-88.14,0
8870,-0.92,0.32,0.49,-54.42,-3.69,-107.41,0
8880,-0.72,0.28,0.10,-120.34,15.08,-128.05,0
8890,-0.63,0.29,-0.08,-118.01,7.75,-148.21,0
8900,-0.65,0.58,-0.15,-75.77,-8.98,-170.93,0
8910,-0.67,0.73,-0.14,-25.50,-35.98,-196.16,0
8920,-0.67,0.63,-0.14,14.29,-49.23,-222.12,0
8930,-0.68,0.55,-0.11,31.82,-56.26,-243.51,0
8940,-0.75,0.59,-0.07,26.82,-60.79,-250.14,0
8950,-0.81,0.68,-0.10,11.31,-56.97,-250.14,0
8960,-0.82,0.76,-0.18,-2.07,-51.72,-249.97,0
8970,-0.79,0.86,-0.24,-8.47,-49.35,-250.14,0
8980,-0.79,1.01,-0.29,-9.69,-49.95,-250.14,0
8990,-0.83,1.14,-0.35,-7.20,-48.04,-250.14,0
9000,-0.80,1.24,-0.38,-0.02,-43.91,-250.14,0
9010,-0.86,1.29,-0.40,10.28,-38.79,-250.14,0
9020,-0.88,1.28,-0.42,19.39,-35.31,-250.14,0
9030,-0.90,1.30,-0.44,29.21,-27.26,-250.14,0
9040,-0.96,1.33,-0.44,38.58,-18.33,-250.14,0
9050,-1.00,1.37,-0.43,46.09,-8.27,-250.14,0
9060,-1.05,1.42,-0.42,50.38,1.67,-250.14,0
9070,-1.09,1.49,-0.38,50.05,8.61,-250.14,0
9080,-1.01,1.56,-0.33,43.75,17.07,-250.14,0
9090,-0.88,1.63,-0.28,29.55,20.31,-248.85,0
9100,-0.69,1.78,-0.17,4.50,8.37,-238.52,0
9110,-0.59,1.97,-0.09,-27.37,3.23,-227.08,0
9120,-0.41,2.00,-0.07,-50.54,11.93,-216.76,0
9130,-0.05,2.00,-0.09,-54.06,25.03,-200.20,0
9140,0.47,2.00,-0.12,-42.48,21.89,-173.77,0
9150,0.93,2.00,-0.15,-29.95,2.16,-136.89,0
9160,1.15,2.00,-0.18,-26.34,-9.63,-97.34,0
9170,1.21,2.00,-0.21,-31.06,-3.34,-62.43,0
9180,1.24,2.00,-0.18,-37.62,10.94,-29.61,0
9190,1.17,2.00,-0.10,-42.53,25.72,6.08,0
9200,1.02,2.00,0.01,-46.24,31.02,44.92,0
9210,0.80,1.96,0.10,-49.60,29.15,79.22,0
9220,0.54,1.80,0.16,-52.32,22.34,103.38,0
9230,-0.04,1.64,-0.01,-54.31,14.11,116.86,0
9240,-1.07,1.64,-1.06,-36.52,81.15,103.89,0
9250,-1.99,0.99,-0.01,11.22,181.15,57.99,0
9260,-1.46,-0.95,0.25,-7.60,164.45,-80.35,0
9270,1.91,-0.56,-2.00,26.58,17.06,-45.45,0
9280,-0.43,2.00,-0.35,78.64,-94.27,236.92,0
9290,-2.00,1.88,1.02,-17.62,-32.92,250.13,0
9300,-0.28,-0.31,-0.31,-150.51,63.31,186.32,0
9310,-0.05,-0.41,-0.98,-159.79,97.31,177.47,0
9320,-0.79,1.33,-0.32,-96.84,1.37,202.26,0
9330,-1.03,1.76,0.27,-41.43,-32.36,182.50,0
9340,-0.72,1.15,0.13,-12.77,-5.92,111.63,0
9350,-0.50,0.82,-0.32,10.63,1.47,47.78,0
9360,-0.69,0.78,-0.15,23.92,-20.27,27.99,0
9370,-0.68,0.81,-0.09,11.08,-20.42,34.66,0
9380,-0.67,0.79,-0.04,-6.50,-10.14,44.11,0
9390,-0.64,0.82,-0.07,-16.77,1.69,46.02,0
9400,-0.61,0.78,-0.16,-12.59,4.70,40.82,0
9410,-0.60,0.78,-0.18,3.18,-7.23,30.43,0
9420,-0.62,0.77,-0.17,16.31,-19.14,19.80,0
9430,-0.62,0.77,-0.13,17.89,-24.18,12.51,0
9440,-0.63,0.76,-0.14,8.50,-20.92,10.62,0
9450,-0.62,0.76,-0.14,-0.87,-21.40,12.97,0
9460,-0.65,0.77,-0.09,-5.92,-22.03,16.24,0
9470,-0.65,0.76,-0.08,-8.00,-19.65,15.73,0
9480,-0.63,0.78,-0.07,-7.43,-18.35,12.95,0
9490,-0.65,0.80,-0.04,-6.44,-15.72,10.46,0
9500,-0.64,0.80,-0.04,-5.89,-10.61,9.67,0
9510,-0.63,0.79,-0.06,-3.96,-6.18,11.25,0
9520,-0.61,0.78,-0.09,0.08,-5.51,13.70,0
9530,-0.61,0.79,-0.08,3.87,-6.75,16.57,0
9540,-0.62,0.79,-0.08,5.53,-6.49,18.82,0
9550,-0.61,0.80,-0.08,6.44,-5.85,19.85,0
9560,-0.60,0.80,-0.09,7.24,-4.92,20.69,0
9570,-0.56,0.80,-0.10,7.47,-5.20,21.53,0
9580,-0.60,0.79,-0.12,6.99,-6.20,23.95,0
9590,-0.59,0.80,-0.10,4.76,-8.80,25.20,0
9600,-0.59,0.81,-0.09,0.40,-7.33,26.77,0
9610,-0.60,0.82,-0.07,-2.92,-4.94,28.36,0
9620,-0.60,0.83,-0.06,-3.89,-3.14,29.28,0
9630,-0.57,0.84,-0.05,-2.75,-1.40,30.56,0
9640,-0.56,0.83,-0.04,-0.73,-1.68,34.10,0
9650,-0.56,0.84,-0.05,1.27,-2.86,38.97,0
9660,-0.54,0.86,-0.06,2.92,-4.76,43.01,0
9670,-0.53,0.83,-0.08,3.22,-9.56,45.78,0
9680,-0.53,0.87,-0.08,1.47,-14.56,47.89,0
9690,-0.52,0.84,-0.17,-0.24,-14.46,49.98,0
9700,-0.57,0.81,-0.20,-3.33,-22.95,51.63,0
9710,-0.59,0.88,-0.14,-11.98,-22.66,52.57,0
9720,-0.56,0.90,-0.08,-26.91,-24.34,58.24,0
9730,-0.58,0.95,-0.10,-40.15,-32.22,68.36,0
9740,-0.59,0.99,-0.21,-44.15,-38.08,78.40,0
9750,-0.63,1.06,-0.25,-40.42,-39.46,87.10,0
9760,-0.64,1.13,-0.20,-39.27,-31.73,94.63,0
9770,-0.64,1.14,-0.15,-46.34,-31.85,101.70,0
9780,-0.67,1.19,-0.16,-54.47,-32.60,107.81,0
9790,-0.77,1.27,-0.25,-56.79,-36.44,114.51,0
9800,-1.06,1.51,-0.37,-51.04,-43.50,118.60,0
9810,-1.15,1.67,0.17,-49.41,-37.11,118.16,0
9820,-1.12,1.46,0.16,-64.51,-37.21,128.40,0
9830,-1.31,1.44,0.17,-65.90,-58.82,153.34,0
9840,-1.61,1.54,0.22,-53.38,-77.47,181.76,0
9850,-1.91,1.55,0.29,-34.14,-74.60,207.67,0
9860,-1.94,1.16,0.00,-7.36,-50.05,233.87,0
9870,-1.81,0.56,-0.20,31.93,-64.02,250.13,0
9880,-1.40,0.23,-0.09,67.88,-81.32,250.13,0
9890,-1.28,0.35,0.07,75.80,-98.02,249.77,0
9900,-2.00,0.79,-0.15,67.79,-95.36,250.13,0
9910,-1.82,0.91,0.02,84.02,-51.31,224.67,0
9920,-1.07,0.53,0.12,116.93,-16.41,139.30,0
9930,-1.58,0.33,-0.09,161.35,-67.93,76.26,0
9940,-1.32,0.26,-0.01,217.70,-82.85,0.92,0
9950,-0.93,0.02,0.03,250.13,-55.99,-55.79,0
9960,-0.85,-0.12,0.23,242.21,-102.34,-90.20,0
9970,-0.70,-0.05,0.48,176.95,-119.65,-117.31,0
9980,-0.77,0.01,0.31,93.97,-71.51,-134.41,0
9990,-0.78,0.09,0.11,47.47,-49.55,-152.02,0
10000,-0.71,0.17,0.16,32.33,-42.21,-173.62,0
10010,-0.62,0.24,0.26,13.70,-39.32,-195.73,0
10020,-0.65,0.39,0.24,-16.00,-36.59,-216.16,0
10030,-0.69,0.52,0.11,-38.24,-34.36,-235.65,0
10040,-0.72,0.62,0.02,-41.71,-39.77,-249.74,0
10050,-0.74,0.73,-0.04,-34.02,-46.76,-250.14,0
10060,-0.75,0.80,-0.06,-24.46,-53.32,-249.95,0
10070,-0.72,0.89,-0.09,-20.74,-62.02,-250.11,0
10080,-0.69,1.04,-0.12,-23.02,-70.32,-250.14,0
10090,-0.70,1.17,-0.18,-25.15,-73.13,-250.14,0
10100,-0.76,1.20,-0.23,-25.50,-73.54,-250.14,0
10110,-0.78,1.23,-0.25,-24.55,-67.97,-250.14,0
10120,-0.80,1.29,-0.22,-28.44,-61.78,-250.14,0
10130,-0.83,1.34,-0.23,-38.20,-52.83,-250.14,0
10140,-0.85,1.36,-0.26,-46.31,-39.82,-250.14,0
10150,-0.86,1.37,-0.29,-47.98,-26.76,-250.14,0
10160,-0.89,1.41,-0.30,-45.91,-15.85,-250.14,0
10170,-0.91,1.44,-0.32,-43.45,-3.96,-250.14,0
10180,-0.88,1.48,-0.32,-41.59,4.53,-247.52,0
10190,-0.97,1.64,-0.27,-44.05,2.05,-232.20,0
10200,-1.05,1.92,-0.20,-51.08,8.26,-223.34,0
10210,-0.75,1.98,-0.25,-59.57,22.69,-229.64,0
10220,-0.29,1.75,-0.34,-64.06,22.92,-235.44,0
10230,-0.13,1.81,-0.37,-62.82,19.27,-226.18,0
10240,0.04,2.00,-0.35,-57.18,16.56,-203.20,0
10250,0.32,2.00,-0.26,-47.53,16.09,-165.09,0
10260,0.60,2.00,-0.19,-39.76,12.22,-121.95,0
10270,0.91,2.00,-0.20,-36.38,-4.98,-82.76,0
10280,0.99,2.00,-0.26,-33.15,-22.50,-51.06,0
10290,0.97,2.00,-0.28,-27.00,-25.35,-28.23,0
10300,0.92,2.00,-0.24,-19.58,-15.63,-7.76,0
10310,0.88,2.00,-0.17,-13.64,-5.55,15.51,0
10320,0.80,1.94,-0.03,-9.31,-5.58,47.73,0
10330,0.62,1.86,0.09,-6.90,-14.46,82.43,0
10340,0.38,1.67,0.14,-5.93,-28.51,106.25,0
10350,-0.78,1.48,-0.53,-1.60,-20.69,109.79,0
10360,-1.86,1.34,-1.70,41.95,106.76,71.43,0
10370,-2.00,-0.34,1.18,75.11,183.96,-24.58,0
10380,0.24,-1.73,-1.16,4.34,62.47,-127.44,0
10390,1.63,1.28,-1.40,42.50,-63.11,91.31,0
10400,-2.00,2.00,0.80,25.62,-12.35,250.13,0
10410,-1.29,0.63,0.43,-110.44,32.45,219.35,0
10420,-0.01,-0.96,-0.77,-180.08,93.04,164.71,0
10430,-0.41,0.08,-0.64,-149.73,56.02,179.03,0
10440,-0.79,1.41,-0.05,-97.81,-19.17,186.03,0
10450,-0.74,1.47,0.00,-58.44,-18.80,155.59,0
10460,-0.85,1.13,0.16,-23.27,-6.63,102.55,0
10470,-0.69,0.93,-0.01,0.02,-4.54,52.13,0
10480,-0.66,0.74,-0.16,14.80,-5.37,34.72,0
10490,-0.66,0.75,-0.08,12.37,-15.62,36.73,0
10500,-0.70,0.84,0.03,0.08,-8.71,41.21,0
10510,-0.70,0.83,0.04,-5.85,5.14,40.27,0
10520,-0.62,0.78,-0.13,1.47,9.54,33.44,0
10530,-0.60,0.75,-0.22,15.05,-2.74,25.24,0
10540,-0.59,0.75,-0.16,25.33,-22.37,17.76,0
10550,-0.62,0.78,-0.10,20.89,-26.40,13.88,0
10560,-0.62,0.75,-0.10,5.83,-22.40,11.47,0
10570,-0.65,0.75,-0.09,-6.67,-20.47,10.35,0
10580,-0.65,0.75,-0.07,-11.57,-21.05,9.81,0
10590,-0.65,0.76,-0.05,-11.01,-21.33,9.55,0
10600,-0.65,0.76,-0.03,-9.69,-21.29,8.99,0
10610,-0.67,0.77,0.01,-10.15,-17.28,8.09,0
10620,-0.67,0.77,0.03,-9.98,-11.25,6.81,0
10630,-0.68,0.77,0.03,-7.50,-4.08,6.28,0
10640,-0.66,0.77,-0.01,-2.69,-0.05,8.19,0
10650,-0.63,0.78,-0.05,4.34,-0.60,11.98,0
10660,-0.61,0.77,-0.06,9.69,-3.24,14.30,0
10670,-0.62,0.77,-0.07,11.15,-4.25,13.69,0
10680,-0.61,0.77,-0.07,9.56,-5.32,11.24,0
10690,-0.61,0.76,-0.08,7.19,-6.18,10.24,0
10700,-0.61,0.77,-0.08,5.22,-8.21,11.31,0
10710,-0.62,0.77,-0.06,2.76,-10.05,13.02,0
10720,-0.62,0.78,-0.05,-0.05,-10.06,14.20,0
10730,-0.60,0.79,-0.05,-1.18,-9.31,14.81,0
10740,-0.63,0.79,-0.03,-0.74,-8.84,15.28,0
10750,-0.62,0.80,-0.02,-0.46,-7.45,15.24,0
10760,-0.61,0.80,-0.02,0.04,-4.48,16.34,0
10770,-0.60,0.81,-0.02,1.18,-2.36,18.21,0
10780,-0.59,0.81,-0.03,2.69,-0.89,21.02,0
10790,-0.58,0.80,-0.05,4.45,-1.58,24.61,0
10800,-0.58,0.80,-0.05,5.13,-3.15,27.92,0
10810,-0.58,0.81,-0.06,3.15,-3.25,30.35,0
10820,-0.57,0.81,-0.06,-0.38,-3.48,32.30,0
10830,-0.59,0.81,-0.05,-4.38,-4.27,34.26,0
10840,-0.57,0.81,-0.07,-8.47,-4.92,36.65,0
10850,-0.60,0.79,-0.05,-12.10,-8.77,41.17,0
10860,-0.57,0.87,0.03,-18.02,-10.01,46.85,0
10870,-0.59,0.88,-0.01,-22.30,-7.14,53.54,0
10880,-0.57,0.87,-0.05,-20.52,-11.29,58.43,0
10890,-0.53,0.87,-0.03,-17.07,-16.48,62.92,0
10900,-0.55,0.91,0.09,-20.29,-28.76,67.05,0
10910,-0.62,1.00,0.11,-27.76,-38.33,69.45,0
10920,-0.65,1.05,-0.03,-29.05,-49.70,71.59,0
10930,-0.80,1.16,-0.19,-18.82,-50.92,73.75,0
10940,-0.80,1.26,0.04,-8.45,-36.27,75.15,0
10950,-0.76,1.25,0.11,-14.92,-44.19,85.03,0
10960,-0.81,1.32,0.06,-18.48,-51.18,99.45,0
10970,-0.81,1.30,0.11,-12.03,-57.71,114.83,0
10980,-0.81,1.26,0.12,-2.50,-74.54,132.37,0
10990,-0.90,1.31,0.11,6.50,-93.81,150.22,0
11000,-1.04,1.42,0.15,12.75,-110.53,165.04,0
11010,-1.18,1.49,0.18,16.24,-124.41,177.56,0
11020,-1.35,1.44,0.15,21.76,-133.55,190.27,0
11030,-1.44,1.25,0.10,32.84,-139.24,204.05,0
11040,-1.57,1.09,0.13,48.55,-139.43,222.09,0
11050,-1.62,0.78,0.19,64.46,-123.73,239.50,0
11060,-1.08,0.35,0.13,77.37,-105.66,250.13,0
11070,-0.75,0.19,-0.10,90.93,-123.69,250.13,0
11080,-1.85,0.13,-0.37,107.66,-201.71,249.93,0
11090,-2.00,-0.04,0.08,124.57,-231.62,201.10,0
11100,-1.16,-0.03,0.45,101.52,-143.47,81.27,0
11110,-1.11,0.32,0.42,35.32,-80.63,1.11,0
11120,-1.03,0.37,0.34,-43.06,-85.09,-54.11,0
11130,-0.89,0.29,0.04,-82.92,-56.60,-88.50,0
11140,-0.69,0.29,-0.19,-70.03,-56.08,-107.12,0
11150,-0.66,0.41,-0.23,-26.09,-92.61,-118.66,0
11160,-0.67,0.51,-0.26,23.71,-107.38,-133.95,0
11170,-0.58,0.47,-0.27,62.91,-117.09,-152.87,0
11180,-0.55,0.42,-0.26,84.42,-134.03,-171.68,0
11190,-0.62,0.40,-0.29,90.39,-143.40,-188.74,0
11200,-0.64,0.40,-0.36,90.34,-147.67,-204.90,0
11210,-0.69,0.39,-0.42,90.01,-147.51,-218.41,0
11220,-0.74,0.42,-0.45,86.03,-144.03,-228.89,0
11230,-0.76,0.52,-0.45,72.79,-141.02,-235.34,0
11240,-0.77,0.64,-0.45,50.37,-141.21,-237.89,0
11250,-0.78,0.78,-0.48,27.18,-137.98,-238.81,0
11260,-0.79,0.89,-0.53,12.49,-131.92,-241.06,0
11270,-0.79,0.97,-0.55,10.15,-126.40,-245.99,0
11280,-0.80,1.01,-0.53,15.00,-122.90,-250.14,0
11290,-0.83,1.04,-0.49,20.46,-122.65,-250.14,0
11300,-0.90,1.11,-0.47,24.41,-123.30,-250.06,0
11310,-0.98,1.21,-0.47,28.33,-123.59,-250.14,0
11320,-1.02,1.30,-0.51,33.74,-123.07,-250.14,0
11330,-0.96,1.35,-0.57,40.05,-123.08,-250.14,0
11340,-0.75,1.40,-0.74,45.31,-132.17,-250.14,0
11350,-0.80,1.54,-0.88,50.17,-161.04,-244.08,0
11360,-0.91,1.81,-1.04,61.15,-162.02,-233.55,0
11370,-0.80,1.84,-1.14,82.69,-146.30,-225.26,0
11380,-0.58,1.71,-1.10,103.87,-143.53,-209.50,0
11390,-0.36,1.71,-0.97,113.30,-143.43,-185.25,0
11400,-0.19,1.74,-0.62,107.02,-141.96,-156.57,0
11410,-0.03,1.79,-0.34,87.81,-132.44,-128.37,0
11420,0.19,1.79,-0.38,74.31,-129.99,-104.82,0
11430,0.39,1.65,-0.54,80.78,-142.87,-87.21,0
11440,0.47,1.67,-0.56,97.08,-150.89,-74.87,0
11450,0.47,1.74,-0.52,102.43,-129.98,-68.63,0
11460,0.50,1.62,-0.45,88.03,-97.37,-52.27,0
11470,0.41,1.65,-0.41,67.03,-59.33,-18.31,0
11480,0.27,1.77,-0.37,52.63,-23.95,13.34,0
11490,0.24,1.76,-0.29,45.09,7.03,31.21,0
11500,0.31,1.53,-0.20,39.55,26.11,41.49,0
11510,0.26,1.22,-0.14,33.95,27.50,55.53,0
11520,-0.00,1.11,-0.17,29.05,24.47,73.99,0
11530,-0.75,1.05,-0.37,27.63,38.79,81.34,0
11540,-1.92,0.69,-0.09,35.27,101.23,53.87,0
11550,-2.00,-0.50,1.60,24.17,189.84,-62.39,0
11560,-0.24,-2.00,-1.40,16.75,204.15,-183.44,0
11570,2.00,0.45,-1.44,106.73,-44.50,-4.30,0
11580,-1.40,2.00,0.73,121.03,-116.69,226.53,0
11590,-1.65,0.99,1.06,-10.82,-19.20,173.79,0
11600,-0.04,-1.10,-0.24,-135.45,135.44,88.25,0
11610,-0.52,0.06,-0.48,-150.00,157.15,98.87,0
11620,-1.01,1.64,-0.05,-100.95,73.24,133.10,0
11630,-0.78,1.29,0.03,-41.31,40.13,145.67,0
11640,-0.40,0.65,-0.21,9.09,15.90,118.90,0
11650,-0.62,0.84,0.02,37.63,-4.24,57.98,0
11660,-0.66,0.93,0.04,27.40,13.45,18.12,0
11670,-0.63,0.69,-0.20,10.98,23.44,28.80,0
11680,-0.67,0.74,-0.05,10.27,3.89,46.49,0
11690,-0.62,0.85,-0.02,11.00,-0.02,43.44,0
11700,-0.62,0.85,-0.02,13.22,2.01,29.63,0
11710,-0.61,0.76,-0.07,17.01,-3.34,21.86,0
11720,-0.65,0.74,-0.11,23.04,-18.69,21.82,0
11730,-0.61,0.74,-0.13,23.04,-30.02,24.32,0
11740,-0.61,0.77,-0.08,14.43,-30.18,24.25,0
11750,-0.65,0.76,-0.03,4.85,-25.71,20.89,0
11760,-0.65,0.79,-0.00,0.13,-22.72,16.95,0
11770,-0.64,0.79,0.01,0.10,-21.63,13.76,0
11780,-0.64,0.77,0.01,1.18,-20.43,10.77,0
11790,-0.65,0.77,0.03,1.55,-17.08,7.85,0
11800,-0.66,0.78,0.05,2.59,-12.68,5.44,0
11810,-0.65,0.79,0.04,2.00,-9.24,5.79,0
11820,-0.65,0.76,0.03,1.81,-6.49,7.40,0
11830,-0.65,0.78,0.02,3.76,-4.88,8.11,0
11840,-0.63,0.80,0.02,6.71,-3.36,6.69,0
11850,-0.62,0.79,0.00,8.60,-3.05,3.21,0
11860,-0.62,0.78,-0.01,8.67,-2.90,0.53,0
11870,-0.62,0.77,-0.02,8.76,-3.93,0.74,0
11880,-0.61,0.77,-0.03,9.82,-7.59,3.57,0
11890,-0.60,0.77,-0.05,9.09,-11.66,5.99,0
11900,-0.61,0.77,-0.03,5.93,-12.41,6.81,0
11910,-0.61,0.78,-0.02,3.98,-12.37,6.85,0
11920,-0.61,0.79,-0.01,4.45,-12.41,6.79,0
11930,-0.61,0.79,-0.00,5.92,-12.24,6.53,0
11940,-0.61,0.79,0.01,6.33,-10.79,6.36,0
11950,-0.62,0.78,0.02,5.57,-7.89,6.55,0
11960,-0.62,0.79,0.02,5.36,-5.69,7.80,0
11970,-0.62,0.79,0.01,5.94,-4.73,9.36,0
11980,-0.61,0.79,0.01,6.26,-3.79,11.08,0
11990,-0.60,0.80,-0.01,5.76,-4.37,13.03,0
12000,-0.59,0.79,-0.02,4.09,-4.71,14.81,0
12010,-0.58,0.79,-0.03,1.57,-5.76,15.98,0
12020,-0.60,0.79,-0.02,-2.10,-5.84,16.75,0
12030,-0.60,0.80,-0.00,-4.77,-5.15,18.37,0
12040,-0.56,0.81,-0.01,-4.50,-7.24,21.45,0
12050,-0.56,0.81,-0.03,-4.06,-10.23,23.44,0
12060,-0.56,0.81,-0.01,-5.53,-11.10,24.27,0
12070,-0.56,0.82,-0.01,-7.99,-12.42,24.71,0
12080,-0.55,0.82,-0.01,-10.46,-13.92,24.74,0
12090,-0.56,0.83,0.01,-12.11,-12.75,24.04,0
12100,-0.56,0.83,-0.00,-12.97,-13.06,24.05,0
12110,-0.54,0.83,-0.01,-14.19,-14.44,25.04,0
12120,-0.55,0.84,-0.00,-16.65,-16.34,26.17,0
12130,-0.55,0.85,0.02,-18.57,-15.85,26.92,0
12140,-0.56,0.86,0.02,-18.32,-18.15,27.94,0
12150,-0.54,0.85,0.03,-16.90,-22.24,30.31,0
12160,-0.53,0.85,0.04,-14.24,-28.80,33.10,0
12170,-0.50,0.87,0.04,-9.31,-37.69,36.11,0
12180,-0.48,0.86,-0.00,-4.24,-49.17,36.97,0
12190,-0.47,0.88,-0.01,-1.88,-58.56,34.21,0
12200,-0.50,0.91,0.01,-2.92,-65.75,28.24,0
12210,-0.56,0.94,0.03,-5.92,-73.47,21.08,0
12220,-0.69,1.00,0.00,-11.25,-77.79,16.96,0
12230,-0.68,1.03,0.11,-20.38,-68.56,23.07,0
12240,-0.69,0.95,0.12,-25.60,-67.47,37.08,0
12250,-0.65,1.04,0.18,-29.35,-75.08,55.36,0
12260,-0.84,1.32,0.29,-31.54,-76.84,69.38,0
12270,-0.83,1.33,0.38,-30.08,-87.63,87.31,0
12280,-0.83,1.27,0.46,-20.78,-101.82,108.43,0
12290,-0.91,1.32,0.53,-2.33,-121.27,129.76,0
12300,-0.96,1.31,0.59,24.17,-145.18,151.98,0
12310,-0.97,1.26,0.63,57.24,-169.27,173.69,0
12320,-1.03,1.20,0.60,96.05,-187.21,190.20,0
12330,-1.06,1.06,0.54,135.27,-201.33,198.10,0
12340,-1.11,0.89,0.45,170.25,-211.50,193.82,0
12350,-1.14,0.64,0.37,196.88,-218.40,176.37,0
12360,-1.36,0.29,0.24,213.10,-213.08,126.93,0
12370,-1.92,0.11,0.15,214.05,-180.62,48.78,0
12380,-1.18,0.19,0.25,186.11,-187.34,9.92,0
12390,-0.86,0.24,0.36,144.38,-190.32,-2.56,0
12400,-1.25,0.37,0.30,122.56,-170.11,-15.47,0
12410,-0.97,0.21,0.07,125.94,-175.85,-13.79,0
12420,-0.80,-0.12,-0.06,131.50,-185.85,-11.58,0
12430,-0.85,-0.10,-0.01,118.63,-170.83,-20.49,0
12440,-0.80,0.14,-0.01,88.56,-156.40,-34.92,0
12450,-0.72,0.24,-0.07,55.16,-150.63,-51.69,0
12460,-0.70,0.26,-0.19,33.94,-147.30,-72.78,0
12470,-0.74,0.34,-0.36,30.66,-143.95,-96.79,0
12480,-0.75,0.45,-0.48,38.76,-143.09,-117.76,0
12490,-0.75,0.51,-0.57,47.90,-145.53,-133.86,0
12500,-0.80,0.59,-0.64,51.46,-142.05,-148.17,0
12510,-0.82,0.66,-0.69,49.10,-135.79,-160.90,0
12520,-0.74,0.69,-0.77,43.76,-129.34,-163.56,0
12530,-0.78,0.66,-0.85,38.23,-120.10,-161.53,0
12540,-0.81,0.69,-0.90,34.06,-106.25,-163.53,0
12550,-0.80,0.80,-0.91,30.82,-94.76,-168.93,0
12560,-0.82,0.89,-0.90,28.69,-86.38,-176.13,0
12570,-0.83,0.94,-0.87,27.58,-75.79,-184.08,0
12580,-0.81,0.97,-0.82,27.71,-66.26,-188.36,0
12590,-0.80,0.98,-0.75,29.26,-60.19,-187.43,0
12600,-0.79,0.99,-0.67,33.07,-54.79,-183.46,0
12610,-0.77,1.00,-0.64,39.67,-50.83,-177.99,0
12620,-0.74,0.99,-0.63,46.50,-47.47,-171.00,0
12630,-0.72,0.99,-0.61,51.69,-47.60,-163.39,0
12640,-0.72,1.01,-0.61,55.34,-48.98,-155.70,0
12650,-0.72,1.03,-0.63,57.18,-47.75,-148.89,0
12660,-0.72,1.07,-0.62,56.22,-45.82,-142.92,0
12670,-0.68,1.11,-0.59,52.63,-44.05,-136.56,0
12680,-0.65,1.12,-0.55,47.34,-45.22,-130.47,0
12690,-0.65,1.19,-0.51,44.30,-42.41,-126.50,0
12700,-0.57,1.27,-0.48,44.40,-44.70,-123.60,0
12710,-0.45,1.22,-0.44,44.76,-54.63,-120.74,0
12720,-0.34,1.17,-0.38,45.22,-62.49,-116.06,0
12730,-0.28,1.19,-0.35,47.16,-78.44,-107.17,0
12740,-0.20,1.28,-0.34,52.34,-94.92,-99.40,0
12750,-0.29,1.47,-0.32,63.40,-98.76,-105.12,0
12760,-0.16,1.46,-0.38,79.27,-100.47,-111.50,0
12770,0.08,1.16,-0.45,90.06,-109.20,-101.07,0
12780,0.12,1.07,-0.43,90.89,-106.57,-76.47,0
12790,0.04,1.22,-0.40,83.22,-98.30,-53.49,0
12800,0.06,1.24,-0.35,71.86,-84.28,-40.56,0
12810,0.12,1.20,-0.31,61.87,-67.27,-31.50,0
12820,0.17,1.19,-0.26,53.42,-54.96,-15.55,0
12830,0.17,1.26,-0.14,44.35,-44.76,5.84,0
12840,0.15,1.33,-0.04,34.14,-38.43,25.84,0
12850,0.17,1.29,0.02,23.15,-37.90,41.03,0
12860,0.15,1.24,0.05,14.91,-29.85,50.55,0
12870,-0.11,1.32,-0.09,22.50,33.36,51.54,0
12880,-0.61,1.41,-0.69,44.88,90.46,45.39,0
12890,-1.47,1.25,-0.43,30.75,93.02,-2.84,0
12900,-2.00,0.60,1.22,2.21,102.36,-56.64,0
12910,-0.25,-0.31,-0.92,44.11,7.60,58.69,0
12920,0.70,0.39,-1.09,40.24,-53.99,178.26,0
12930,-1.17,1.72,0.32,-48.05,1.98,165.45,0
12940,-1.08,1.12,0.40,-123.41,74.56,119.40,0
12950,-0.55,0.01,-0.21,-122.63,72.59,105.73,0
12960,-0.49,0.29,-0.49,-76.92,26.69,113.11,0
12970,-0.61,0.99,-0.19,-31.46,20.31,111.95,0
12980,-0.80,1.40,-0.05,-3.24,7.34,86.68,0
12990,-0.75,1.02,-0.01,14.24,-4.73,54.83,0
13000,-0.55,0.73,-0.13,20.58,-3.95,38.24,0
13010,-0.69,0.91,0.03,9.82,6.90,29.76,0
13020,-0.63,0.95,-0.07,6.56,10.47,26.15,0
13030,-0.59,0.69,-0.16,12.35,1.60,24.92,0
13040,-0.65,0.80,-0.05,12.35,1.60,24.92,0
13050,-0.62,0.83,-0.09,14.69,1.25,22.87,0
13060,-0.59,0.77,-0.17,14.45,0.90,19.98,0
13070,-0.60,0.79,-0.15,15.27,-5.28,14.33,0
13080,-0.60,0.77,-0.11,12.98,-9.11,9.13,0
13090,-0.64,0.79,-0.08,7.04,-7.53,8.73,0
13100,-0.62,0.78,-0.11,1.95,-6.36,11.05,0
13110,-0.62,0.78,-0.10,-0.63,-8.15,13.80,0
13120,-0.61,0.79,-0.10,-2.56,-8.37,13.80,0
13130,-0.59,0.79,-0.11,-3.21,-8.51,11.95,0
13140,-0.61,0.82,-0.07,-2.89,-8.40,8.63,0
13150,-0.60,0.78,-0.08,-2.02,-6.10,3.92,0
13160,-0.61,0.80,-0.08,0.66,-6.24,1.56,0
13170,-0.60,0.79,-0.09,3.71,-5.99,0.46,0
13180,-0.59,0.79,-0.10,5.86,-7.27,0.89,0
13190,-0.60,0.79,-0.11,7.46,-9.47,3.14,0
13200,-0.60,0.79,-0.11,9.57,-13.07,4.28,0
13210,-0.58,0.80,-0.09,10.33,-15.20,4.06,0
13220,-0.62,0.78,-0.08,8.49,-14.03,4.25,0
13230,-0.62,0.78,-0.08,5.39,-11.69,4.29,0
13240,-0.59,0.80,-0.10,4.53,-10.58,4.69,0
13250,-0.60,0.79,-0.09,5.93,-12.02,5.11,0
13260,-0.61,0.79,-0.07,6.56,-12.39,5.02,0
13270,-0.60,0.80,-0.06,5.47,-10.13,5.06,0
13280,-0.61,0.81,-0.06,4.38,-6.48,5.67,0
13290,-0.61,0.80,-0.08,5.05,-4.52,6.09,0
13300,-0.60,0.81,-0.07,6.79,-5.39,7.28,0
13310,-0.61,0.79,-0.08,7.89,-3.84,8.52,0
13320,-0.60,0.79,-0.07,7.69,-4.09,9.62,0
13330,-0.59,0.80,-0.08,6.40,-2.24,11.77,0
13340,-0.57,0.80,-0.10,5.88,-3.47,14.44,0
13350,-0.56,0.81,-0.10,5.61,-5.98,17.55,0
13360,-0.57,0.82,-0.10,3.74,-6.43,19.44,0
13370,-0.57,0.81,-0.09,1.73,-6.53,19.83,0
13380,-0.59,0.82,-0.08,0.27,-6.49,19.91,0
13390,-0.56,0.82,-0.09,-0.94,-5.88,20.11,0
13400,-0.55,0.83,-0.09,-1.72,-5.49,22.85,0
13410,-0.56,0.83,-0.07,-3.04,-5.47,25.40,0
13420,-0.57,0.84,-0.06,-4.89,-4.10,28.20,0
13430,-0.55,0.84,-0.06,-6.45,-2.83,31.17,0
13440,-0.54,0.84,-0.07,-7.80,-2.99,35.50,0
13450,-0.53,0.83,-0.09,-9.83,-5.78,40.19,0
13460,-0.53,0.85,-0.09,-12.98,-8.65,44.15,0
13470,-0.54,0.88,-0.08,-17.27,-10.09,46.20,0
13480,-0.52,0.87,-0.08,-21.94,-10.89,47.87,0
13490,-0.54,0.89,-0.06,-27.01,-13.98,51.40,0
13500,-0.56,0.91,-0.03,-33.29,-19.27,56.82,0
13510,-0.58,0.98,0.00,-40.40,-25.44,64.10,0
13520,-0.55,0.97,-0.04,-45.64,-38.11,73.37,0
13530,-0.55,0.98,-0.12,-44.12,-51.09,83.60,0
13540,-0.65,1.11,-0.24,-35.98,-50.84,91.88,0
13550,-0.80,1.25,-0.36,-26.21,-45.25,94.83,0
13560,-0.78,1.39,0.05,-26.27,-45.71,95.06,0
13570,-0.77,1.41,0.08,-44.21,-42.78,100.86,0
13580,-0.93,1.41,0.00,-50.69,-55.82,110.54,0
13590,-0.98,1.38,0.11,-40.68,-65.73,120.03,0
13600,-0.93,1.34,0.11,-26.58,-78.23,136.85,0
13610,-1.12,1.40,0.09,-10.95,-91.33,160.65,0
13620,-1.31,1.42,0.09,4.56,-99.56,181.51,0
13630,-1.48,1.42,0.13,18.05,-96.41,199.78,0
13640,-1.73,1.30,0.14,30.40,-71.24,217.19,0
13650,-1.69,0.90,0.13,42.83,-46.02,234.34,0
13660,-1.40,0.55,0.33,51.66,-37.56,250.13,0
13670,-1.10,0.43,0.34,50.16,-30.39,250.13,0
13680,-1.39,0.43,-0.06,51.40,-54.70,249.85,0
13690,-2.00,0.42,-0.23,79.40,-134.67,247.27,0
13700,-1.46,0.35,0.32,121.73,-158.17,182.54,0
13710,-1.03,0.42,0.14,153.81,-96.12,94.48,0
13720,-1.31,0.32,0.12,178.22,-108.79,28.93,0
13730,-1.02,0.06,0.25,176.92,-119.97,-32.75,0
13740,-0.81,-0.07,0.29,142.27,-103.03,-68.13,0
13750,-0.76,-0.10,0.31,85.85,-103.82,-84.65,0
13760,-0.78,0.04,0.22,30.29,-94.40,-101.04,0
13770,-0.74,0.22,0.06,-4.36,-73.86,-123.70,0
13780,-0.64,0.25,0.01,-18.44,-72.87,-147.54,0
13790,-0.62,0.29,-0.05,-21.56,-80.16,-168.10,0
13800,-0.64,0.42,-0.13,-18.79,-90.89,-185.96,0
13810,-0.71,0.51,-0.23,-11.98,-102.65,-201.28,0
13820,-0.69,0.60,-0.32,-0.82,-110.22,-217.52,0
13830,-0.80,0.63,-0.36,7.30,-116.85,-226.13,0
13840,-0.80,0.67,-0.46,6.37,-120.26,-228.56,0
13850,-0.81,0.76,-0.53,4.50,-118.02,-231.81,0
13860,-0.80,0.86,-0.56,0.70,-114.39,-239.08,0
13870,-0.79,0.95,-0.61,-6.21,-108.54,-247.70,0
13880,-0.82,1.02,-0.69,-11.78,-100.92,-250.14,0
13890,-0.87,1.07,-0.79,-11.47,-90.13,-250.14,0
13900,-0.90,1.12,-0.80,-7.86,-73.63,-250.07,0
13910,-0.91,1.16,-0.76,-7.76,-55.57,-250.14,0
13920,-0.95,1.18,-0.72,-11.82,-39.23,-250.14,0
13930,-0.99,1.20,-0.68,-15.99,-19.19,-250.14,0
13940,-1.03,1.25,-0.66,-17.37,3.04,-250.14,0
13950,-1.04,1.36,-0.59,-16.40,28.57,-250.14,0
13960,-0.99,1.43,-0.54,-15.31,54.13,-250.06,0
13970,-0.91,1.44,-0.50,-15.05,67.23,-241.49,0
13980,-0.83,1.48,-0.39,-17.86,70.37,-219.43,0
13990,-0.84,1.61,-0.14,-32.13,61.43,-200.48,0
14000,-0.82,1.81,0.09,-61.54,54.68,-198.14,0
14010,-0.59,1.90,0.10,-90.42,63.08,-210.76,0
14020,-0.19,1.86,-0.06,-97.50,73.27,-217.82,0
14030,0.13,1.90,-0.06,-82.07,65.27,-199.28,0
14040,0.37,2.00,0.01,-62.42,50.36,-156.25,0
14050,0.63,2.00,0.07,-48.84,31.62,-102.50,0
14060,0.82,2.00,0.11,-40.02,6.53,-51.27,0
14070,0.98,2.00,0.12,-29.93,-16.63,-15.32,0
14080,1.09,2.00,0.14,-15.40,-33.17,3.21,0
14090,1.07,1.91,0.18,0.45,-43.08,11.49,0
14100,0.91,1.83,0.25,11.09,-49.62,23.04,0
14110,0.74,1.79,0.34,11.52,-53.60,47.21,0
14120,0.55,1.69,0.37,5.79,-58.29,76.56,0
14130,0.20,1.57,0.28,1.44,-64.82,98.95,0
14140,-1.11,1.54,-0.84,11.63,-13.11,97.56,0
14150,-1.80,1.23,-1.88,71.50,155.92,56.66,0
14160,-2.00,-0.53,1.23,75.11,105.22,-13.15,0
14170,0.08,-0.91,-0.69,-62.53,7.73,-76.42,0
14180,1.37,1.56,-1.53,-70.07,65.66,87.06,0
14190,-1.85,2.00,0.27,-57.07,10.31,250.13,0
14200,-1.03,0.65,0.07,-91.88,15.01,250.13,0
14210,-0.46,-0.49,-0.60,-103.89,-4.95,246.90,0
14220,-0.44,0.86,-0.38,-70.83,-21.29,239.10,0
14230,-1.01,2.00,0.63,-49.00,-31.21,155.86,0
14240,-0.55,1.33,0.09,-42.12,14.60,56.28,0
14250,-0.50,0.37,-0.31,-2.37,19.55,23.02,0
14260,-0.63,0.87,-0.16,38.23,-17.68,24.98,0
14270,-0.63,0.93,0.01,42.73,-34.02,32.56,0
14280,-0.59,0.78,0.00,22.87,-19.91,33.44,0
14290,-0.61,0.83,-0.05,9.16,0.04,28.98,0
14300,-0.61,0.82,-0.05,12.06,3.65,21.07,0
14310,-0.59,0.80,-0.16,19.72,2.63,14.98,0
14320,-0.58,0.78,-0.17,26.34,-9.83,12.26,0
14330,-0.58,0.80,-0.11,24.02,-17.40,8.36,0
14340,-0.57,0.80,-0.12,10.96,-13.73,4.75,0
14350,-0.60,0.80,-0.11,-1.05,-9.85,2.47,0
14360,-0.61,0.79,-0.09,-3.98,-9.64,0.08,0
14370,-0.61,0.79,-0.07,-0.85,-11.26,-0.56,0
14380,-0.63,0.79,-0.04,1.64,-10.27,0.81,0
14390,-0.63,0.79,-0.03,2.13,-6.79,3.22,0
14400,-0.63,0.79,-0.02,1.69,-2.92,7.27,0
14410,-0.62,0.80,-0.04,1.49,1.75,11.89,0
14420,-0.57,0.79,-0.07,4.03,3.62,16.65,0
14430,-0.62,0.80,-0.08,6.11,3.43,23.66,0
14440,-0.59,0.83,-0.07,7.52,1.52,26.03,0
14450,-0.57,0.83,-0.09,10.19,1.73,22.34,0
14460,-0.57,0.82,-0.12,12.35,0.62,17.47,0
14470,-0.54,0.80,-0.12,10.47,-2.76,16.05,0
14480,-0.57,0.82,-0.11,5.05,-3.95,18.60,0
14490,-0.55,0.81,-0.10,0.30,-4.78,21.98,0
14500,-0.58,0.82,-0.08,-2.04,-5.13,25.71,0
14510,-0.56,0.85,-0.08,-2.56,-4.24,28.25,0
14520,-0.54,0.83,-0.08,-1.92,-4.29,31.45,0
14530,-0.56,0.85,-0.06,-2.07,-3.44,34.53,0
14540,-0.52,0.86,-0.06,-2.85,-2.73,37.56,0
14550,-0.53,0.87,-0.04,-3.20,-3.63,41.74,0
14560,-0.56,0.88,-0.07,-3.43,-5.05,44.75,0
14570,-0.48,0.86,-0.08,-2.88,-8.79,48.04,0
14580,-0.51,0.87,-0.10,-3.67,-13.14,54.15,0
14590,-0.57,0.86,-0.16,-4.65,-14.56,57.21,0
14600,-0.58,0.90,-0.11,-9.36,-18.64,58.95,0
14610,-0.56,0.95,-0.06,-20.51,-17.40,63.50,0
14620,-0.56,0.97,-0.10,-32.33,-24.53,73.83,0
14630,-0.59,1.03,-0.22,-35.94,-30.76,88.18,0
14640,-0.64,1.11,-0.28,-32.37,-29.45,102.24,0
14650,-0.65,1.13,-0.23,-30.53,-22.85,113.63,0
14660,-0.68,1.26,-0.14,-34.17,-21.25,123.04,0
14670,-0.71,1.29,-0.10,-38.31,-15.63,128.76,0
14680,-0.71,1.31,-0.05,-39.05,-10.99,132.56,0
14690,-0.85,1.40,-0.08,-35.13,-9.98,137.02,0
14700,-1.18,1.64,-0.16,-24.76,-11.71,137.05,0
14710,-1.16,1.70,0.37,-16.92,1.60,133.02,0
14720,-1.17,1.51,0.42,-27.88,-5.01,143.46,0
14730,-1.46,1.53,0.37,-29.45,-27.28,163.07,0
14740,-1.65,1.56,0.36,-16.46,-47.01,182.79,0
14750,-1.91,1.32,0.26,6.11,-66.25,204.57,0
14760,-2.00,0.90,0.06,38.66,-67.16,225.11,0
14770,-1.87,0.33,-0.04,75.33,-54.85,245.70,0
14780,-1.04,0.11,-0.26,101.44,-43.76,250.13,0
14790,-1.09,0.32,-0.52,115.10,-83.15,250.03,0
14800,-2.00,0.26,0.01,112.18,-156.37,250.00,0
14810,-1.60,0.25,0.41,77.37,-95.28,212.46,0
14820,-1.06,0.25,0.21,23.60,9.21,116.32,0
14830,-1.52,0.32,0.12,-25.29,-23.98,27.18,0
14840,-1.03,0.40,-0.01,-29.68,9.60,-54.76,0
14850,-0.71,0.35,-0.12,1.01,1.45,-89.35,0
14860,-0.73,0.28,-0.17,43.49,-49.18,-104.79,0
14870,-0.62,0.27,-0.17,85.39,-71.42,-123.33,0
14880,-0.55,0.26,-0.11,111.18,-90.02,-142.22,0
14890,-0.57,0.23,-0.08,116.31,-109.98,-163.56,0
14900,-0.58,0.27,-0.10,114.23,-117.11,-188.70,0
14910,-0.61,0.26,-0.14,114.73,-121.74,-212.56,0
14920,-0.66,0.21,-0.16,114.68,-126.98,-230.64,0
14930,-0.73,0.26,-0.15,103.98,-124.55,-242.76,0
14940,-0.79,0.39,-0.11,73.94,-122.50,-250.14,0
14950,-0.85,0.57,-0.12,30.67,-110.82,-250.14,0
14960,-0.84,0.71,-0.22,-9.71,-96.31,-250.03,0
14970,-0.78,0.85,-0.31,-33.29,-92.25,-250.12,0
14980,-0.78,1.05,-0.38,-38.81,-93.61,-250.14,0
14990,-0.84,1.20,-0.41,-34.08,-95.27,-250.14,0
15000,-0.86,1.25,-0.43,-24.86,-91.17,-250.14,0
15010,-0.86,1.22,-0.42,-17.46,-86.49,-250.14,0
15020,-0.92,1.19,-0.42,-20.01,-87.31,-250.14,0
15030,-0.97,1.27,-0.46,-27.73,-84.02,-250.14,0
15040,-1.03,1.38,-0.50,-33.68,-74.49,-250.14,0
15050,-1.05,1.43,-0.52,-38.67,-59.97,-250.14,0
15060,-1.09,1.48,-0.50,-46.82,-45.04,-250.14,0
15070,-1.12,1.60,-0.48,-58.05,-22.77,-250.14,0
15080,-1.06,1.70,-0.48,-68.82,4.59,-250.14,0
15090,-0.98,1.79,-0.41,-80.54,20.05,-250.14,0
15100,-0.82,1.96,-0.45,-93.06,36.77,-249.93,0
15110,-0.57,2.00,-0.42,-99.50,50.54,-243.18,0
15120,-0.23,2.00,-0.30,-96.59,66.06,-225.99,0
15130,0.20,2.00,-0.13,-84.34,71.04,-196.15,0
15140,0.60,2.00,-0.01,-68.70,53.08,-151.13,0
15150,0.89,2.00,0.04,-56.75,24.29,-102.91,0
15160,1.05,2.00,0.04,-55.19,-0.47,-65.08,0
15170,1.09,2.00,0.02,-63.80,-6.45,-37.44,0
15180,0.97,2.00,0.00,-72.98,9.98,-9.34,0
15190,0.81,2.00,0.04,-75.08,29.72,21.79,0
15200,0.74,1.99,0.12,-71.60,38.76,51.32,0
15210,0.65,1.86,0.19,-67.93,35.02,76.78,0
15220,0.42,1.73,0.23,-63.92,23.11,94.44,0
15230,0.20,1.59,0.26,-57.53,11.21,102.31,0
15240,-0.67,1.38,-0.25,-49.36,12.31,103.90,0
15250,-1.73,1.32,-1.86,-8.83,133.88,73.31,0
15260,-2.00,0.21,0.08,54.37,204.15,13.70,0
15270,-0.91,-1.14,0.09,-34.54,41.51,-63.29,0
15280,1.84,0.77,-1.64,-79.85,43.09,34.24,0
15290,-1.14,2.00,-0.30,-61.94,39.68,246.99,0
15300,-1.53,1.42,0.20,-91.18,18.76,250.13,0
15310,-0.46,-0.31,-0.59,-120.11,-7.27,246.77,0
15320,-0.21,-0.29,-0.71,-99.41,-33.38,228.73,0
15330,-0.45,1.22,-0.20,-57.77,-49.11,180.22,0
15340,-1.36,2.00,0.79,-35.48,-44.21,116.48,0
15350,-0.62,1.31,0.10,-33.19,-5.69,54.70,0
15360,-0.50,0.28,-0.35,-0.25,2.76,42.15,0
15370,-0.65,0.91,-0.11,25.64,-32.05,40.97,0
15380,-0.67,1.04,0.15,17.92,-33.47,36.34,0
15390,-0.63,0.80,0.04,1.31,-2.93,27.66,0
15400,-0.62,0.81,-0.05,-0.14,12.17,18.53,0
15410,-0.63,0.79,-0.08,9.07,10.95,11.96,0
15420,-0.61,0.75,-0.17,19.40,4.18,9.72,0
15430,-0.58,0.76,-0.17,26.55,-9.56,9.31,0
15440,-0.58,0.78,-0.12,20.12,-14.77,8.33,0
15450,-0.59,0.78,-0.14,5.27,-13.00,7.02,0
15460,-0.60,0.77,-0.14,-4.96,-14.79,5.47,0
15470,-0.62,0.77,-0.09,-7.43,-17.09,3.30,0
15480,-0.63,0.78,-0.06,-6.32,-17.60,2.46,0
15490,-0.63,0.78,-0.05,-5.50,-17.73,4.02,0
15500,-0.63,0.80,-0.03,-5.73,-16.17,7.17,0
15510,-0.64,0.80,-0.01,-5.70,-12.63,9.49,0
15520,-0.63,0.80,-0.02,-4.58,-6.73,10.03,0
15530,-0.63,0.79,-0.03,-2.30,-2.98,11.20,0
15540,-0.62,0.81,-0.04,2.84,-1.80,13.05,0
15550,-0.60,0.81,-0.05,9.03,-2.10,14.63,0
15560,-0.58,0.80,-0.07,13.42,-1.89,14.47,0
15570,-0.57,0.79,-0.10,14.26,-2.46,14.21,0
15580,-0.59,0.80,-0.09,10.98,-4.55,14.86,0
15590,-0.57,0.80,-0.10,5.05,-4.78,16.26,0
15600,-0.57,0.80,-0.10,1.17,-5.94,19.12,0
15610,-0.57,0.81,-0.09,0.09,-7.97,21.72,0
15620,-0.57,0.81,-0.09,-0.80,-8.88,23.94,0
15630,-0.55,0.82,-0.07,-2.43,-7.93,25.81,0
15640,-0.57,0.83,-0.05,-4.04,-5.69,27.47,0
15650,-0.56,0.84,-0.04,-4.79,-4.07,28.71,0
15660,-0.56,0.83,-0.05,-3.84,-3.49,31.48,0
15670,-0.56,0.84,-0.03,-3.03,-5.10,35.47,0
15680,-0.55,0.83,-0.06,-3.78,-6.90,40.32,0
15690,-0.52,0.83,-0.05,-5.74,-11.77,45.65,0
15700,-0.56,0.87,-0.04,-9.02,-14.39,50.89,0
15710,-0.53,0.86,-0.11,-11.32,-16.55,54.67,0
15720,-0.57,0.85,-0.08,-12.82,-22.21,59.42,0
15730,-0.59,0.91,-0.03,-19.56,-25.13,64.89,0
15740,-0.56,0.94,-0.03,-28.24,-27.51,73.14,0
15750,-0.56,0.93,-0.06,-33.44,-36.94,84.77,0
15760,-0.56,0.99,-0.11,-34.19,-47.60,95.13,0
15770,-0.60,1.04,-0.20,-31.49,-48.32,102.06,0
15780,-0.60,1.12,-0.17,-27.83,-35.84,108.16,0
15790,-0.60,1.17,-0.10,-29.31,-28.80,113.37,0
15800,-0.61,1.20,-0.10,-34.40,-25.21,114.92,0
15810,-0.71,1.29,-0.20,-35.87,-19.91,116.73,0
15820,-0.90,1.45,-0.31,-29.70,-14.27,115.34,0
15830,-0.84,1.44,0.06,-26.08,-1.75,111.12,0
15840,-0.82,1.30,0.13,-39.28,-5.10,116.89,0
15850,-1.02,1.49,0.24,-48.88,-17.92,128.33,0
15860,-1.19,1.63,0.45,-53.12,-28.97,139.63,0
15870,-1.31,1.57,0.48,-53.52,-49.29,153.86,0
15880,-1.63,1.57,0.49,-41.18,-66.17,170.71,0
15890,-1.86,1.42,0.34,-13.36,-73.97,185.21,0
15900,-1.94,0.96,0.10,32.44,-85.40,204.31,0
15910,-1.80,0.31,0.03,88.50,-91.31,234.73,0
15920,-1.25,-0.05,-0.21,130.73,-84.98,250.13,0
15930,-1.64,0.06,-0.09,137.67,-91.87,250.13,0
15940,-2.00,0.26,0.44,90.03,-92.08,243.22,0
15950,-1.21,0.45,0.51,14.06,-24.12,176.90,0
15960,-1.27,0.43,0.03,-32.51,-4.68,117.33,0
15970,-1.37,0.22,-0.04,-25.47,-77.49,63.09,0
15980,-0.89,0.16,-0.13,20.36,-61.62,14.17,0
15990,-1.01,0.35,-0.22,77.83,-75.57,-19.28,0
16000,-0.92,0.37,-0.19,128.95,-99.24,-62.98,0
16010,-0.70,0.30,-0.06,147.86,-107.56,-109.53,0
16020,-0.64,0.25,0.03,126.37,-109.85,-149.53,0
16030,-0.73,0.20,-0.01,91.72,-97.84,-183.85,0
16040,-0.79,0.23,-0.04,68.23,-74.48,-212.32,0
16050,-0.79,0.27,0.02,50.18,-45.90,-233.61,0
16060,-0.70,0.36,0.10,21.61,-25.27,-246.47,0
16070,-0.67,0.55,0.10,-14.50,-9.11,-250.14,0
16080,-0.70,0.73,0.06,-44.40,1.28,-250.14,0
16090,-0.70,0.86,-0.01,-57.51,11.11,-250.07,0
16100,-0.66,0.97,-0.04,-55.23,13.11,-250.14,0
16110,-0.58,1.10,-0.02,-44.76,9.17,-250.14,0
16120,-0.62,1.21,-0.03,-36.37,-0.40,-250.14,0
16130,-0.63,1.30,-0.06,-27.18,-3.72,-250.14,0
16140,-0.65,1.33,-0.05,-17.56,-1.11,-250.14,0
16150,-0.67,1.29,-0.01,-14.12,3.51,-250.14,0
16160,-0.69,1.27,0.00,-18.66,9.58,-250.14,0
16170,-0.72,1.29,-0.02,-27.72,13.66,-250.14,0
16180,-0.77,1.30,-0.06,-37.46,16.41,-250.14,0
16190,-0.82,1.30,-0.11,-46.00,20.76,-250.14,0
16200,-0.85,1.34,-0.15,-51.89,29.71,-250.14,0
16210,-0.85,1.38,-0.20,-55.17,41.05,-250.14,0
16220,-0.84,1.43,-0.24,-56.15,48.78,-250.14,0
16230,-0.90,1.54,-0.25,-55.27,51.09,-247.66,0
16240,-0.99,1.80,-0.19,-51.80,58.16,-236.55,0
16250,-0.85,1.95,-0.14,-43.63,75.65,-226.98,0
16260,-0.44,1.86,-0.02,-34.44,79.31,-212.13,0
16270,-0.17,1.91,0.14,-32.76,59.06,-183.24,0
16280,-0.01,2.00,0.22,-37.97,36.05,-153.71,0
16290,0.38,2.00,0.17,-44.04,21.73,-133.29,0
16300,0.76,2.00,0.02,-47.44,13.77,-117.85,0
16310,1.01,2.00,-0.05,-48.36,16.02,-102.20,0
16320,1.06,2.00,-0.04,-50.05,31.05,-79.30,0
16330,1.16,2.00,0.02,-56.49,39.85,-43.04,0
16340,1.11,2.00,0.06,-62.87,44.40,3.37,0
16350,0.96,2.00,0.10,-63.92,41.82,41.08,0
16360,0.79,1.93,0.14,-59.15,33.69,66.98,0
16370,0.53,1.82,0.16,-51.85,21.37,88.69,0
16380,-0.23,1.87,-0.35,-40.37,29.15,103.68,0
16390,-1.38,1.80,-1.75,0.42,117.98,96.62,0
16400,-2.00,0.72,0.83,51.98,162.89,37.29,0
16410,-0.17,-0.59,-0.87,2.85,85.88,-51.92,0
16420,1.44,0.73,-1.84,42.69,-8.15,86.40,0
16430,-1.34,2.00,0.32,54.97,-96.14,250.13,0
16440,-1.17,0.87,0.45,-53.54,-38.00,221.89,0
16450,-0.56,-0.41,-0.37,-145.83,76.03,166.56,0
16460,-0.37,0.31,-0.76,-146.00,63.58,167.31,0
16470,-0.61,1.30,-0.38,-90.97,-21.79,194.05,0
16480,-1.27,1.94,0.40,-44.10,-45.42,180.95,0
16490,-0.43,1.18,0.02,-29.58,-30.36,112.02,0
16500,-0.59,0.58,-0.20,-9.35,-9.37,57.76,0
16510,-0.57,0.89,-0.24,-1.10,-22.38,27.85,0
16520,-0.64,0.89,-0.06,-1.73,-28.83,28.86,0
16530,-0.67,0.81,0.03,-9.56,-21.85,32.01,0
16540,-0.61,0.80,-0.11,-14.59,-9.44,31.05,0
16550,-0.65,0.77,-0.06,-9.35,-11.70,29.07,0
16560,-0.66,0.79,-0.07,-4.50,-11.39,24.50,0
16570,-0.61,0.78,-0.15,2.44,-14.52,17.77,0
16580,-0.61,0.79,-0.09,7.79,-22.23,9.35,0
16590,-0.62,0.80,-0.06,2.51,-19.90,1.75,0
16600,-0.62,0.77,-0.10,-6.73,-15.44,-1.71,0
16610,-0.63,0.77,-0.10,-10.46,-17.28,-0.35,0
16620,-0.63,0.77,-0.08,-9.98,-19.08,3.30,0
16630,-0.61,0.78,-0.07,-9.47,-20.22,7.67,0
16640,-0.62,0.79,-0.04,-10.44,-19.16,11.51,0
16650,-0.62,0.78,-0.05,-11.56,-15.98,12.89,0
16660,-0.62,0.80,-0.04,-9.88,-14.20,12.27,0
16670,-0.63,0.80,-0.02,-7.06,-11.98,11.44,0
16680,-0.62,0.80,-0.03,-3.30,-9.33,11.38,0
16690,-0.61,0.81,-0.04,2.33,-8.68,12.13,0
16700,-0.61,0.80,-0.06,7.15,-8.47,12.44,0
16710,-0.59,0.80,-0.07,9.00,-8.78,12.83,0
16720,-0.59,0.79,-0.07,6.82,-8.97,13.59,0
16730,-0.59,0.80,-0.06,3.27,-8.02,14.24,0
16740,-0.58,0.81,-0.06,1.79,-7.53,16.04,0
16750,-0.59,0.80,-0.06,2.54,-7.31,19.66,0
16760,-0.58,0.79,-0.07,3.96,-8.47,25.58,0
16770,-0.58,0.82,-0.05,3.50,-10.53,33.07,0
16780,-0.60,0.81,-0.03,0.71,-9.77,41.97,0
16790,-0.57,0.84,-0.01,-3.30,-6.98,47.34,0
16800,-0.59,0.85,-0.03,-5.16,-2.76,49.78,0
16810,-0.52,0.86,-0.04,-4.05,-1.56,47.60,0
16820,-0.54,0.86,-0.04,-1.76,-0.20,45.40,0
16830,-0.53,0.85,-0.05,-0.63,0.26,45.08,0
16840,-0.52,0.85,-0.05,-0.96,-1.24,48.68,0
16850,-0.49,0.86,-0.07,-1.11,-3.79,54.98,0
16860,-0.48,0.87,-0.08,0.15,-7.77,58.84,0
16870,-0.51,0.86,-0.10,-0.38,-10.87,58.86,0
16880,-0.53,0.88,-0.10,-6.27,-11.11,57.18,0
16890,-0.53,0.89,-0.08,-15.35,-8.39,55.66,0
16900,-0.53,0.90,-0.06,-22.82,-7.56,59.52,0
16910,-0.53,0.93,-0.09,-25.55,-10.49,65.83,0
16920,-0.48,0.94,-0.08,-25.05,-17.83,69.24,0
16930,-0.47,0.99,-0.05,-27.78,-30.68,69.83,0
16940,-0.51,1.07,-0.11,-33.44,-40.21,68.56,0
16950,-0.51,1.09,-0.21,-35.88,-38.69,67.36,0
16960,-0.47,1.02,-0.22,-37.03,-38.07,68.67,0
16970,-0.52,1.11,-0.17,-42.76,-51.78,73.68,0
16980,-0.86,1.44,-0.23,-50.00,-57.57,75.51,0
16990,-1.00,1.71,0.15,-54.98,-51.21,67.56,0
17000,-0.90,1.45,0.14,-67.13,-48.69,67.27,0
17010,-0.98,1.32,0.16,-67.14,-52.20,82.05,0
17020,-1.13,1.48,0.18,-55.33,-44.82,102.31,0
17030,-1.24,1.45,0.14,-35.20,-43.66,124.41,0
17040,-1.30,1.20,0.07,-8.69,-45.65,150.12,0
17050,-1.38,1.02,0.02,19.97,-43.66,180.18,0
17060,-1.33,0.81,0.08,40.09,-42.53,214.35,0
17070,-1.18,0.51,0.16,40.69,-45.52,246.34,0
17080,-1.29,0.25,0.14,27.46,-54.69,250.13,0
17090,-2.00,0.02,-0.34,23.98,-70.53,234.85,0
17100,-1.85,-0.00,-0.10,62.16,-79.00,134.69,0
17110,-1.33,0.06,0.02,115.37,-53.11,47.10,0
17120,-1.64,0.21,0.02,168.96,-72.53,-1.66,0
17130,-1.23,0.11,0.09,206.47,-65.50,-54.30,0
17140,-0.92,-0.11,0.18,202.92,-62.78,-78.85,0
17150,-0.92,-0.10,0.32,154.61,-80.94,-85.53,0
17160,-0.85,0.20,0.32,83.50,-62.80,-95.55,0
17170,-0.74,0.38,0.14,21.07,-43.86,-109.74,0
17180,-0.66,0.42,-0.06,-9.82,-45.44,-127.11,0
17190,-0.65,0.57,-0.17,-10.02,-44.63,-146.45,0
17200,-0.66,0.75,-0.21,2.55,-49.82,-164.82,0
17210,-0.69,0.84,-0.20,12.34,-54.71,-180.24,0
17220,-0.69,0.86,-0.24,14.99,-53.60,-191.01,0
17230,-0.68,0.88,-0.28,14.98,-53.52,-196.43,0
17240,-0.69,0.90,-0.31,15.66,-52.27,-199.05,0
17250,-0.71,0.93,-0.34,16.72,-49.64,-202.67,0
17260,-0.63,0.99,-0.34,18.06,-45.84,-212.06,0
17270,-0.72,1.01,-0.33,14.24,-41.88,-213.34,0
17280,-0.70,1.02,-0.35,7.23,-35.82,-206.75,0
17290,-0.67,1.03,-0.36,6.11,-28.74,-201.88,0
17300,-0.67,1.03,-0.34,7.94,-27.15,-201.69,0
17310,-0.68,1.05,-0.34,7.57,-25.15,-204.70,0
17320,-0.68,1.06,-0.34,6.02,-21.17,-207.70,0
17330,-0.67,1.06,-0.36,6.23,-17.89,-207.47,0
17340,-0.68,1.09,-0.36,9.31,-15.57,-202.53,0
17350,-0.72,1.16,-0.35,14.73,-13.23,-194.25,0
17360,-0.71,1.26,-0.35,22.24,-10.53,-185.20,0
17370,-0.65,1.27,-0.34,31.52,-10.83,-176.67,0
17380,-0.61,1.25,-0.28,37.73,-21.40,-169.62,0
17390,-0.61,1.30,-0.24,38.19,-34.08,-167.56,0
17400,-0.54,1.37,-0.22,37.01,-42.04,-170.45,0
17410,-0.43,1.38,-0.19,36.61,-55.59,-174.25,0
17420,-0.32,1.38,-0.19,38.01,-70.93,-175.82,0
17430,-0.15,1.40,-0.20,41.72,-89.24,-169.16,0
17440,0.05,1.43,-0.19,45.47,-111.94,-149.24,0
17450,0.20,1.58,-0.19,47.01,-130.98,-114.44,0
17460,0.22,1.83,-0.23,48.43,-135.75,-73.28,0
17470,0.34,1.99,-0.25,51.79,-134.07,-40.05,0
17480,0.62,1.98,-0.20,54.84,-126.92,-19.12,0
17490,0.81,1.86,-0.11,54.62,-112.25,-8.81,0
17500,0.89,1.75,-0.01,51.20,-98.01,-4.91,0
17510,0.80,1.68,0.08,47.32,-92.71,5.66,0
17520,0.70,1.64,0.18,39.81,-92.88,28.54,0
17530,0.58,1.61,0.17,29.14,-84.07,55.25,0
17540,0.27,1.58,0.04,20.50,-75.67,75.87,0
17550,-0.94,1.74,-0.93,24.84,-1.08,77.36,0
17560,-2.00,1.83,-1.62,86.12,196.56,39.87,0
17570,-2.00,0.13,1.10,95.89,196.58,-35.19,0
17580,0.73,-0.79,-0.58,-40.41,53.49,-70.89,0
17590,0.68,1.23,-1.01,-79.43,88.47,105.75,0
17600,-1.64,2.00,0.33,-98.16,81.23,249.08,0
17610,-1.09,0.56,0.20,-152.87,80.95,250.13,0
17620,-0.15,0.36,-0.53,-176.18,96.44,245.95,0
17630,-0.19,1.44,-0.70,-126.59,91.47,223.36,0
17640,-0.83,1.58,0.30,-55.30,-6.98,142.66,0
17650,-0.63,0.93,0.37,-2.73,4.32,46.74,0
17660,-0.51,0.82,-0.18,36.85,44.69,5.45,0
17670,-0.58,0.78,-0.19,59.35,18.31,3.53,0
17680,-0.61,0.76,-0.06,56.07,-4.59,12.31,0
17690,-0.57,0.79,-0.04,31.24,-0.69,25.08,0
17700,-0.58,0.77,-0.11,11.73,10.39,31.08,0
17710,-0.57,0.82,-0.14,14.61,6.40,25.42,0
17720,-0.56,0.82,-0.17,25.56,-6.11,14.99,0
17730,-0.50,0.79,-0.15,26.67,-17.15,7.46,0
17740,-0.62,0.80,-0.11,16.12,-17.50,5.27,0
17750,-0.59,0.80,-0.11,3.10,-18.95,1.95,0
17760,-0.59,0.79,-0.09,-1.64,-21.99,-0.47,0
17770,-0.62,0.79,-0.06,0.25,-24.11,-3.61,0
17780,-0.62,0.80,-0.04,2.99,-24.87,-6.14,0
17790,-0.64,0.79,-0.00,1.84,-23.68,-5.89,0
17800,-0.65,0.78,0.02,-2.66,-18.80,-3.76,0
17810,-0.64,0.80,0.01,-4.40,-14.23,-0.02,0
17820,-0.63,0.80,-0.00,-1.05,-11.97,4.87,0
17830,-0.61,0.80,-0.03,3.13,-11.06,8.81,0
17840,-0.59,0.81,-0.04,6.43,-11.18,9.21,0
17850,-0.59,0.81,-0.02,7.95,-9.46,6.18,0
17860,-0.61,0.80,-0.02,8.58,-5.65,2.27,0
17870,-0.61,0.79,-0.03,9.80,-3.40,0.92,0
17880,-0.61,0.78,-0.05,11.26,-3.27,3.31,0
17890,-0.59,0.79,-0.06,11.02,-4.84,7.55,0
17900,-0.58,0.80,-0.06,8.33,-6.38,10.91,0
17910,-0.58,0.81,-0.05,4.60,-5.89,11.70,0
17920,-0.60,0.81,-0.05,2.31,-4.38,10.34,0
17930,-0.59,0.81,-0.04,2.34,-3.27,8.85,0
17940,-0.59,0.81,-0.05,3.88,-2.66,9.08,0
17950,-0.56,0.81,-0.06,4.89,-3.07,10.79,0
17960,-0.58,0.81,-0.05,3.82,-3.29,13.92,0
17970,-0.59,0.82,-0.04,1.42,-2.31,15.18,0
17980,-0.58,0.82,-0.04,0.14,-0.64,15.33,0
17990,-0.58,0.82,-0.04,1.32,-0.28,15.78,0
18000,-0.56,0.81,-0.06,3.35,-1.22,17.41,0
18010,-0.55,0.82,-0.08,3.45,-3.79,20.72,0
18020,-0.56,0.83,-0.06,-0.20,-5.37,23.64,0
18030,-0.57,0.83,-0.05,-5.68,-4.70,24.74,0
18040,-0.58,0.83,-0.03,-9.65,-2.38,25.91,0
18050,-0.55,0.86,-0.02,-10.82,-0.89,29.53,0
18060,-0.52,0.84,-0.07,-8.98,-1.66,35.09,0
18070,-0.55,0.84,-0.06,-7.00,-3.60,39.28,0
18080,-0.56,0.88,-0.01,-10.19,-1.82,40.56,0
18090,-0.58,0.90,0.00,-15.79,2.20,42.36,0
18100,-0.55,0.90,0.01,-18.47,2.37,46.71,0
18110,-0.54,0.91,0.02,-17.60,-3.89,53.99,0
18120,-0.53,0.96,0.05,-16.36,-18.52,61.05,0
18130,-0.53,0.98,-0.02,-16.23,-36.23,66.21,0
18140,-0.56,1.00,-0.13,-13.20,-44.89,69.56,0
18150,-0.61,1.05,-0.15,-9.12,-42.24,72.11,0
18160,-0.67,1.08,-0.16,-12.07,-47.11,74.72,0
18170,-0.78,1.31,-0.11,-19.22,-57.51,77.72,0
18180,-0.83,1.49,0.13,-27.40,-54.90,82.37,0
18190,-0.85,1.39,0.14,-34.53,-64.53,92.11,0
18200,-0.90,1.38,0.27,-31.08,-81.56,107.70,0
18210,-0.98,1.41,0.29,-22.04,-98.80,126.95,0
18220,-1.03,1.43,0.30,-9.82,-122.73,149.60,0
18230,-1.22,1.41,0.22,5.89,-152.28,173.63,0
18240,-1.34,1.48,0.25,27.53,-173.22,194.14,0
18250,-1.48,1.39,0.29,50.80,-177.15,213.91,0
18260,-1.42,0.87,0.29,74.10,-184.63,234.23,0
18270,-1.07,0.34,0.29,96.07,-192.94,250.13,0
18280,-0.84,0.13,0.16,112.24,-190.40,250.13,0
18290,-1.63,0.06,-0.02,123.73,-203.21,249.84,0
18300,-2.00,0.13,-0.08,140.46,-195.85,211.69,0
18310,-1.22,-0.20,0.09,156.23,-122.00,102.93,0
18320,-1.02,-0.39,0.22,136.24,-118.48,27.40,0
18330,-1.09,0.04,0.44,77.37,-110.15,-31.84,0
18340,-0.75,0.28,0.35,3.07,-70.67,-79.44,0
18350,-0.71,0.15,0.11,-45.61,-74.18,-106.40,0
18360,-0.69,0.15,-0.10,-44.83,-80.82,-132.44,0
18370,-0.59,0.31,-0.14,-14.15,-94.02,-159.11,0
18380,-0.58,0.44,-0.15,14.53,-114.78,-182.91,0
18390,-0.61,0.49,-0.20,30.40,-129.47,-204.53,0
18400,-0.65,0.54,-0.29,35.66,-138.61,-222.59,0
18410,-0.70,0.61,-0.40,36.34,-143.82,-234.40,0
18420,-0.77,0.68,-0.51,37.91,-145.92,-239.68,0
18430,-0.81,0.78,-0.59,40.53,-147.08,-239.84,0
18440,-0.83,0.88,-0.65,42.03,-144.71,-235.92,0
18450,-0.81,0.92,-0.72,41.45,-142.66,-229.44,0
18460,-0.81,0.96,-0.76,39.30,-139.17,-222.73,0
18470,-0.85,1.02,-0.79,37.09,-128.15,-220.44,0
18480,-0.81,1.06,-0.79,37.06,-115.63,-225.31,0
18490,-0.82,1.05,-0.79,37.25,-105.11,-230.92,0
18500,-0.84,1.05,-0.78,40.67,-97.10,-235.10,0
18510,-0.87,1.09,-0.72,47.61,-88.69,-238.82,0
18520,-0.91,1.15,-0.66,53.24,-82.26,-241.63,0
18530,-0.90,1.22,-0.63,56.53,-76.56,-242.34,0
18540,-0.77,1.29,-0.67,60.30,-72.73,-237.84,0
18550,-0.69,1.33,-0.72,67.70,-81.34,-223.62,0
18560,-0.71,1.47,-0.73,78.66,-89.15,-204.22,0
18570,-0.62,1.57,-0.76,92.31,-84.73,-183.00,0
18580,-0.44,1.51,-0.68,102.54,-88.69,-156.72,0
18590,-0.36,1.51,-0.54,100.47,-103.80,-126.81,0
18600,-0.28,1.64,-0.44,86.95,-116.24,-105.12,0
18610,-0.05,1.58,-0.45,73.79,-126.16,-95.95,0
18620,0.24,1.37,-0.43,68.58,-160.47,-88.45,0
18630,0.28,1.31,-0.37,69.75,-201.52,-75.66,0
18640,0.23,1.44,-0.42,77.94,-217.08,-62.82,0
18650,0.15,1.52,-0.45,91.21,-222.43,-53.15,0
18660,0.09,1.54,-0.40,102.24,-215.92,-48.12,0
18670,0.14,1.51,-0.36,108.56,-189.69,-42.69,0
18680,0.13,1.48,-0.28,110.98,-167.08,-30.07,0
18690,0.06,1.52,-0.26,115.22,-140.27,-15.60,0
18700,0.16,1.38,-0.23,126.02,-119.60,-3.08,0
18710,0.21,1.22,-0.13,132.31,-116.97,12.58,0
18720,0.09,1.27,-0.08,126.86,-108.03,27.89,0
18730,-0.03,1.35,-0.09,115.97,-89.54,37.24,0
18740,-0.22,1.38,-0.20,106.43,-62.15,42.50,0
18750,-0.96,1.30,-0.51,104.69,2.17,37.40,0
18760,-1.87,0.75,-0.19,106.13,78.28,6.52,0
18770,-2.00,-0.51,1.64,65.73,100.87,-74.90,0
18780,-0.75,-1.54,-0.73,15.66,142.48,-167.33,0
18790,1.92,0.25,-1.49,67.12,53.13,-52.53,0
18800,-0.76,2.00,0.29,97.48,-65.48,171.18,0
18810,-2.00,1.53,1.02,28.43,16.58,204.27,0
18820,-0.26,-0.33,0.05,-89.71,52.62,134.51,0
18830,-0.27,-0.27,-0.39,-136.17,88.53,118.48,0
18840,-0.77,1.01,-0.11,-109.51,78.68,114.63,0
18850,-0.91,1.32,0.15,-54.56,46.49,101.01,0
18860,-0.50,0.76,-0.05,-0.96,27.40,78.69,0
18870,-0.57,0.79,0.06,33.78,5.41,54.56,0
18880,-0.68,0.99,0.24,32.36,13.48,27.40,0
18890,-0.60,0.84,0.01,15.67,44.50,12.27,0
18900,-0.59,0.72,-0.14,17.01,40.06,12.05,0
18910,-0.62,0.76,-0.06,28.75,19.22,15.00,0
18920,-0.61,0.79,-0.02,28.63,10.02,16.66,0
18930,-0.60,0.79,-0.06,22.67,9.87,15.14,0
18940,-0.60,0.77,-0.11,19.15,6.95,10.54,0
18950,-0.59,0.73,-0.11,17.27,-4.31,7.18,0
18960,-0.58,0.77,-0.08,12.10,-13.11,8.89,0
18970,-0.61,0.77,-0.06,4.44,-16.45,12.71,0
18980,-0.60,0.76,-0.06,-1.44,-19.44,14.40,0
18990,-0.61,0.77,-0.03,-4.27,-22.76,14.18,0
19000,-0.62,0.80,0.03,-5.14,-24.19,11.34,0
19010,-0.62,0.81,0.04,-5.22,-20.72,7.28,0
19020,-0.64,0.80,0.05,-2.97,-18.58,5.18,0
19030,-0.64,0.80,0.06,1.37,-16.73,4.31,0
19040,-0.63,0.80,0.06,5.21,-13.62,3.82,0
19050,-0.63,0.80,0.06,7.69,-10.21,3.76,0
19060,-0.64,0.79,0.06,9.47,-5.89,3.51,0
19070,-0.62,0.79,0.03,11.66,-2.80,3.08,0
19080,-0.60,0.79,0.00,13.79,-2.53,3.15,0
19090,-0.59,0.79,-0.01,13.39,-3.62,3.69,0
19100,-0.59,0.79,-0.02,10.67,-4.55,4.46,0
19110,-0.59,0.79,-0.02,8.80,-6.74,4.71,0
19120,-0.60,0.79,-0.01,8.30,-8.82,4.22,0
19130,-0.60,0.79,0.00,8.38,-9.79,3.88,0
19140,-0.61,0.78,0.02,8.26,-9.62,3.64,0
19150,-0.61,0.80,0.03,7.80,-8.39,3.25,0
19160,-0.61,0.81,0.03,8.16,-6.31,4.11,0
19170,-0.60,0.80,0.03,9.72,-4.57,5.84,0
19180,-0.60,0.79,0.01,11.18,-3.19,7.26,0
19190,-0.61,0.79,0.02,10.66,-2.15,7.78,0
19200,-0.60,0.79,0.01,8.49,-0.11,7.75,0
19210,-0.58,0.80,-0.01,7.38,0.69,8.61,0
19220,-0.57,0.81,-0.02,7.56,-0.29,10.00,0
19230,-0.59,0.81,-0.02,7.36,-1.61,10.99,0
19240,-0.58,0.80,-0.01,6.38,-2.05,10.69,0
19250,-0.61,0.82,0.00,5.11,-1.43,10.77,0
19260,-0.54,0.78,-0.01,4.87,-2.34,12.50,0
19270,-0.57,0.81,-0.01,4.80,-2.27,15.80,0
19280,-0.58,0.83,-0.01,3.03,-2.28,15.83,0
19290,-0.56,0.82,-0.02,1.18,-2.78,15.07,0
19300,-0.55,0.82,-0.03,0.18,-3.67,15.37,0
19310,-0.57,0.81,-0.01,-1.07,-6.37,16.52,0
19320,-0.56,0.83,0.01,-4.02,-5.98,18.11,0
19330,-0.57,0.82,0.02,-6.74,-4.64,20.60,0
19340,-0.56,0.84,0.03,-7.70,-3.08,23.58,0
19350,-0.55,0.82,0.01,-7.43,-2.63,27.47,0
19360,-0.54,0.84,0.03,-7.60,-5.62,32.72,0
19370,-0.55,0.87,0.03,-9.53,-7.87,37.92,0
19380,-0.53,0.85,0.02,-12.17,-10.46,41.26,0
19390,-0.52,0.87,0.07,-15.24,-14.21,44.15,0
19400,-0.55,0.95,0.13,-19.31,-22.13,46.98,0
19410,-0.56,0.92,0.09,-19.82,-31.92,48.08,0
19420,-0.48,0.84,0.12,-17.33,-44.18,50.66,0
19430,-0.55,0.89,0.15,-18.50,-63.45,56.10,0
19440,-0.62,0.97,0.13,-20.95,-86.11,59.44,0
19450,-0.64,1.06,0.24,-22.76,-103.73,62.14,0
19460,-0.75,1.27,0.18,-21.45,-103.08,65.85,0
19470,-0.72,1.34,0.26,-15.47,-121.02,72.85,0
19480,-0.87,1.49,0.31,-10.56,-157.97,84.95,0
19490,-1.01,1.61,0.19,-0.90,-173.67,95.10,0
19500,-1.11,1.60,0.13,16.87,-191.94,106.98,0
19510,-1.23,1.54,0.19,34.39,-215.18,123.55,0
19520,-1.44,1.49,0.15,48.03,-225.07,144.77,0
19530,-1.57,1.29,0.16,62.15,-231.06,168.06,0
19540,-1.44,1.01,0.22,76.89,-236.61,197.84,0
19550,-1.35,0.74,0.21,93.56,-233.63,236.44,0
19560,-1.13,0.28,0.15,108.55,-237.44,250.13,0
19570,-1.24,0.08,0.12,115.15,-235.36,250.13,0
19580,-2.00,0.23,-0.07,115.37,-206.41,240.55,0
19590,-1.25,0.17,0.23,109.15,-163.84,159.34,0
19600,-0.70,0.23,0.31,72.90,-143.83,77.05,0
19610,-1.21,0.51,0.14,26.36,-136.76,18.21,0
19620,-0.85,0.32,0.02,-2.21,-124.30,-41.30,0
19630,-0.68,0.09,-0.12,-1.89,-118.71,-66.85,0
19640,-0.68,0.19,-0.19,20.30,-123.56,-75.88,0
19650,-0.64,0.33,-0.23,44.74,-131.35,-87.45,0
19660,-0.64,0.31,-0.29,59.75,-136.66,-103.33,0
19670,-0.64,0.28,-0.36,66.93,-137.72,-122.37,0
19680,-0.67,0.31,-0.49,71.90,-137.83,-142.77,0
19690,-0.71,0.34,-0.57,76.98,-140.04,-163.78,0
19700,-0.74,0.37,-0.61,78.48,-139.88,-182.29,0
19710,-0.79,0.41,-0.65,73.80,-134.50,-196.55,0
19720,-0.80,0.45,-0.69,64.13,-125.41,-208.72,0
19730,-0.80,0.51,-0.74,52.38,-115.11,-218.67,0
19740,-0.87,0.55,-0.78,41.76,-104.63,-221.98,0
19750,-0.89,0.65,-0.80,33.71,-89.79,-223.21,0
19760,-0.88,0.77,-0.80,28.14,-71.22,-226.24,0
19770,-0.85,0.82,-0.79,25.63,-58.14,-232.08,0
19780,-0.85,0.87,-0.75,27.33,-49.01,-239.60,0
19790,-0.88,0.94,-0.73,33.17,-41.83,-247.52,0
19800,-0.92,1.00,-0.74,42.77,-36.50,-250.14,0
19810,-0.95,1.06,-0.73,54.08,-31.94,-250.14,0
19820,-0.97,1.16,-0.71,63.40,-28.92,-250.07,0
19830,-1.01,1.28,-0.70,69.94,-27.92,-250.11,0
19840,-1.02,1.40,-0.71,76.21,-26.32,-247.76,0
19850,-1.00,1.53,-0.69,82.42,-26.91,-241.66,0
19860,-1.05,1.66,-0.60,84.69,-36.25,-237.52,0
19870,-0.98,1.79,-0.55,82.68,-39.56,-241.85,0
19880,-0.71,1.84,-0.56,82.66,-36.44,-246.70,0
19890,-0.44,1.89,-0.49,85.92,-41.61,-238.99,0
19900,-0.24,2.00,-0.37,89.63,-43.11,-217.27,0
19910,0.13,2.00,-0.22,91.28,-39.56,-186.73,0
19920,0.52,1.98,-0.15,86.99,-53.50,-149.79,0
19930,0.87,1.92,-0.19,79.06,-73.40,-113.24,0
19940,0.94,1.99,-0.20,67.60,-85.53,-79.84,0
19950,0.92,2.00,-0.17,55.65,-62.66,-53.51,0
19960,1.01,2.00,-0.09,43.24,-35.64,-26.34,0
19970,1.09,2.00,0.01,31.40,-24.79,11.71,0
19980,0.98,2.00,0.08,21.59,-21.99,58.72,0
19990,0.30,1.98,-0.17,16.68,-14.10,102.23,0
20000,-1.18,1.75,-0.27,32.57,24.42,110.72,0
20010,-2.00,0.94,0.85,50.79,63.98,59.66,0
20020,-1.16,-0.56,-0.26,43.76,54.95,-17.30,0
20030,0.70,-0.56,-1.22,77.47,-28.04,36.23,0
20040,-0.43,1.32,-0.03,82.84,-123.29,155.03,0
20050,-1.29,1.78,0.64,0.49,-42.66,167.79,0
20060,-0.94,0.30,0.12,-102.99,76.81,120.11,0
20070,-0.48,-0.21,-0.55,-131.91,84.71,107.23,0
20080,-0.55,0.62,-0.35,-90.31,16.49,133.87,0
20090,-0.74,1.10,-0.06,-41.34,-4.45,145.93,0
20100,-0.81,1.18,-0.00,-13.17,-3.89,125.35,0
20110,-0.79,1.13,0.09,-5.73,0.62,84.98,0
20120,-0.55,0.89,-0.22,1.55,8.29,54.37,0
20130,-0.76,0.81,0.01,13.02,-5.33,44.14,0
20140,-0.63,0.92,-0.04,6.21,-2.95,36.74,0
20150,-0.58,0.83,-0.14,-1.57,8.15,36.23,0
20160,-0.63,0.80,-0.05,-2.12,4.15,34.25,0
20170,-0.60,0.83,-0.11,0.77,3.79,27.95,0
20180,-0.58,0.75,-0.19,7.87,-2.56,22.35,0
20190,-0.60,0.78,-0.13,13.66,-15.55,17.98,0
20200,-0.61,0.82,-0.07,11.26,-18.44,14.23,0
20210,-0.60,0.78,-0.11,5.11,-13.57,11.42,0
20220,-0.61,0.78,-0.11,1.98,-14.23,10.21,0
20230,-0.62,0.79,-0.08,1.21,-16.66,9.53,0
20240,-0.62,0.79,-0.07,0.80,-17.01,8.59,0
20250,-0.61,0.79,-0.07,0.79,-16.53,7.24,0
20260,-0.62,0.80,-0.05,1.21,-14.97,5.55,0
20270,-0.63,0.80,-0.03,1.68,-12.18,3.30,0
20280,-0.63,0.80,-0.03,3.10,-8.61,1.50,0
20290,-0.63,0.80,-0.03,5.26,-5.43,1.74,0
20300,-0.64,0.78,-0.04,7.80,-3.04,3.69,0
20310,-0.63,0.80,-0.04,11.29,-2.61,5.68,0
20320,-0.60,0.78,-0.09,14.32,-2.74,7.72,0
20330,-0.60,0.78,-0.08,14.66,-4.72,8.96,0
20340,-0.60,0.79,-0.09,11.37,-3.82,8.92,0
20350,-0.59,0.79,-0.10,8.71,-3.57,9.52,0
20360,-0.59,0.80,-0.10,8.44,-4.58,10.47,0
20370,-0.60,0.79,-0.09,9.02,-6.31,10.95,0
20380,-0.61,0.79,-0.06,9.01,-6.34,11.53,0
20390,-0.63,0.80,-0.04,7.73,-2.06,11.55,0
20400,-0.60,0.79,-0.07,7.56,1.15,12.00,0
20410,-0.59,0.80,-0.10,8.97,0.49,13.71,0
20420,-0.55,0.79,-0.13,9.27,-3.04,15.53,0
20430,-0.56,0.80,-0.11,7.11,-6.62,18.61,0
20440,-0.59,0.80,-0.10,3.06,-6.29,20.76,0
20450,-0.57,0.80,-0.10,0.59,-6.05,22.56,0
20460,-0.60,0.82,-0.07,0.13,-6.33,24.20,0
20470,-0.55,0.81,-0.07,0.60,-6.88,25.63,0
20480,-0.58,0.82,-0.05,0.50,-6.90,29.43,0
20490,-0.58,0.84,-0.08,-1.02,-4.07,31.99,0
20500,-0.53,0.84,-0.08,-2.61,-5.70,34.88,0
20510,-0.55,0.83,-0.08,-4.18,-6.60,40.70,0
20520,-0.55,0.85,-0.07,-6.63,-7.56,44.50,0
20530,-0.49,0.85,-0.07,-8.99,-7.48,47.73,0
20540,-0.55,0.86,-0.05,-10.42,-7.27,50.82,0
20550,-0.53,0.88,-0.02,-12.97,-7.60,53.76,0
20560,-0.55,0.91,-0.03,-16.39,-5.58,58.31,0
20570,-0.51,0.90,-0.06,-17.98,-6.61,62.39,0
20580,-0.52,0.90,-0.10,-18.93,-8.67,67.44,0
20590,-0.50,0.89,-0.13,-21.36,-10.83,73.48,0
20600,-0.53,0.96,-0.05,-30.34,-12.10,81.78,0
20610,-0.57,1.06,-0.05,-44.20,-19.55,91.61,0
20620,-0.57,1.11,-0.13,-51.43,-28.50,100.89,0
20630,-0.61,1.21,-0.17,-46.55,-26.54,108.15,0
20640,-0.58,1.23,-0.11,-36.60,-17.92,113.21,0
20650,-0.53,1.22,-0.07,-30.90,-23.92,116.92,0
20660,-0.59,1.23,-0.08,-27.73,-26.16,119.37,0
20670,-0.72,1.30,-0.19,-24.93,-26.37,120.11,0
20680,-0.93,1.50,-0.14,-19.48,-25.34,119.22,0
20690,-0.85,1.49,0.22,-23.72,-23.09,121.03,0
20700,-0.92,1.42,0.19,-36.95,-39.85,135.00,0
20710,-1.18,1.69,0.32,-40.09,-71.20,152.77,0
20720,-1.45,1.79,0.41,-37.01,-104.01,168.66,0
20730,-1.68,1.70,0.38,-25.77,-135.64,183.78,0
20740,-1.96,1.52,0.27,-2.56,-164.44,200.89,0
20750,-2.00,1.11,0.08,36.66,-157.79,216.21,0
20760,-1.76,0.55,-0.07,90.31,-133.29,236.93,0
20770,-1.38,0.10,-0.24,137.92,-106.15,250.13,0
20780,-1.75,0.09,-0.60,159.15,-89.50,250.13,0
20790,-2.00,0.09,0.10,133.76,-131.81,249.82,0
20800,-1.24,0.54,0.63,51.44,-80.30,222.57,0
20810,-1.14,0.89,0.13,-30.86,44.63,151.41,0
20820,-1.33,0.49,-0.09,-72.29,-11.07,71.56,0
20830,-0.73,0.09,-0.11,-57.47,-17.62,4.28,0
20840,-0.61,0.16,-0.18,-10.57,-1.57,-30.76,0
20850,-0.71,0.41,-0.18,36.31,-28.14,-66.51,0
20860,-0.67,0.44,-0.13,65.08,-39.95,-110.36,0
20870,-0.61,0.31,-0.08,73.45,-39.27,-147.27,0
20880,-0.57,0.27,-0.09,68.44,-44.52,-173.97,0
20890,-0.64,0.28,-0.16,63.71,-49.82,-193.78,0
20900,-0.70,0.25,-0.21,66.23,-55.71,-210.71,0
20910,-0.66,0.22,-0.21,69.21,-56.17,-226.89,0
20920,-0.74,0.24,-0.21,62.47,-56.62,-236.66,0
20930,-0.80,0.32,-0.22,43.05,-60.37,-243.36,0
20940,-0.87,0.47,-0.28,17.56,-57.32,-249.42,0
20950,-0.90,0.61,-0.38,-3.44,-51.69,-250.14,0
20960,-0.87,0.73,-0.46,-13.18,-46.71,-250.07,0
20970,-0.86,0.85,-0.51,-11.89,-41.37,-250.11,0
20980,-0.86,0.90,-0.55,-5.19,-39.81,-250.14,0
20990,-0.93,0.94,-0.58,2.37,-39.20,-250.14,0
21000,-1.00,1.02,-0.59,8.39,-35.76,-250.14,0
21010,-1.07,1.12,-0.59,12.11,-30.31,-250.14,0
21020,-1.13,1.23,-0.57,13.66,-24.75,-250.14,0
21030,-1.21,1.37,-0.57,15.22,-18.42,-250.14,0
21040,-1.23,1.50,-0.59,19.66,-9.60,-250.14,0
21050,-1.17,1.62,-0.58,27.27,-5.11,-250.14,0
21060,-1.25,1.73,-0.57,30.15,-8.63,-250.14,0
21070,-1.27,1.91,-0.54,29.71,-9.19,-250.14,0
21080,-1.28,2.00,-0.47,28.17,-1.20,-250.14,0
21090,-1.15,2.00,-0.32,26.49,15.58,-250.14,0
21100,-0.75,2.00,-0.11,24.08,30.69,-250.14,0
21110,-0.23,2.00,0.20,14.24,24.24,-244.24,0
21120,0.34,2.00,0.43,-8.47,3.05,-209.41,0
21130,0.83,2.00,0.39,-34.19,-16.34,-161.51,0
21140,1.18,2.00,0.20,-48.31,-34.19,-108.53,0
21150,1.38,2.00,-0.03,-49.43,-35.75,-57.53,0
21160,1.53,2.00,-0.07,-50.24,-14.15,-22.15,0
21170,1.56,2.00,0.10,-59.82,31.90,-1.65,0
21180,1.44,2.00,0.20,-70.66,62.40,19.11,0
21190,1.17,2.00,0.29,-71.59,49.82,53.58,0
21200,0.83,2.00,0.36,-68.69,31.13,91.77,0
21210,0.54,1.92,0.38,-69.82,25.58,118.73,0
21220,0.31,1.69,0.39,-74.81,18.48,131.40,0
21230,0.04,1.50,0.29,-79.89,8.59,134.45,0
21240,-1.49,1.49,-1.25,-63.05,56.24,118.22,0
21250,-2.00,0.60,-0.79,68.71,239.08,5.82,0
21260,-1.17,-2.00,0.08,46.39,68.37,-218.02,0
21270,2.00,-0.81,-1.66,-54.70,-143.05,-147.61,0
21280,-0.21,2.00,-0.75,-29.18,42.11,217.60,0
21290,-2.00,1.96,1.10,-62.26,60.13,250.13,0
21300,-0.50,-0.46,-0.31,-139.60,24.77,245.47,0
21310,0.14,-1.52,-1.12,-143.52,-5.66,248.68,0
21320,-0.34,0.45,-0.65,-105.64,-32.28,250.13,0
21330,-1.14,2.00,0.53,-83.93,-49.85,221.43,0
21340,-0.55,1.84,0.35,-81.13,-20.43,98.93,0
21350,-0.52,0.39,-0.19,-33.95,4.40,18.19,0
21360,-0.57,0.65,-0.23,29.88,-12.98,-5.36,0
21370,-0.71,1.07,-0.01,62.47,-34.19,-3.80,0
21380,-0.60,0.74,0.07,45.47,-37.28,-0.26,0
21390,-0.61,0.79,-0.01,9.79,-4.50,6.63,0
21400,-0.66,0.82,-0.07,-7.38,8.31,11.72,0
21410,-0.63,0.80,-0.12,4.73,2.95,12.55,0
21420,-0.62,0.78,-0.10,25.80,-8.47,12.19,0
21430,-0.61,0.81,-0.06,29.19,-8.50,10.27,0
21440,-0.61,0.80,-0.07,15.27,-1.14,8.74,0
21450,-0.63,0.79,-0.09,6.18,4.89,8.99,0
21460,-0.60,0.77,-0.14,7.84,4.82,8.40,0
21470,-0.59,0.78,-0.14,12.47,-0.42,8.83,0
21480,-0.57,0.78,-0.14,10.00,-4.15,10.07,0
21490,-0.58,0.82,-0.09,1.32,-2.85,11.45,0
21500,-0.60,0.81,-0.10,-4.00,2.15,10.89,0
21510,-0.61,0.81,-0.07,-1.15,3.56,9.58,0
21520,-0.61,0.81,-0.08,4.56,5.21,9.59,0
21530,-0.59,0.80,-0.10,8.52,4.79,13.16,0
21540,-0.59,0.81,-0.10,9.64,3.05,18.50,0
21550,-0.57,0.81,-0.12,9.10,3.60,21.53,0
21560,-0.56,0.82,-0.14,9.33,3.44,19.65,0
21570,-0.53,0.81,-0.14,9.03,1.46,16.21,0
21580,-0.57,0.78,-0.15,6.87,0.07,18.38,0
21590,-0.56,0.83,-0.15,3.44,-3.07,22.83,0
21600,-0.54,0.80,-0.13,-0.10,-6.03,27.37,0
21610,-0.58,0.85,-0.11,-2.57,-4.44,29.64,0
21620,-0.55,0.83,-0.10,-4.23,-2.50,30.18,0
21630,-0.55,0.84,-0.11,-4.24,-1.66,32.87,0
21640,-0.54,0.86,-0.08,-3.96,-2.22,36.95,0
21650,-0.52,0.86,-0.07,-4.82,-0.96,42.37,0
21660,-0.53,0.89,-0.07,-5.48,0.27,48.63,0
21670,-0.50,0.89,-0.07,-5.69,-1.15,54.18,0
21680,-0.49,0.89,-0.09,-5.94,-4.62,59.95,0
21690,-0.51,0.88,-0.13,-6.02,-11.60,67.26,0
21700,-0.45,0.90,-0.13,-6.63,-17.89,75.01,0
21710,-0.43,0.91,-0.14,-10.67,-24.69,88.15,0
21720,-0.52,0.86,-0.25,-16.89,-30.15,106.12,0
21730,-0.52,0.92,-0.23,-25.07,-34.02,116.25,0
21740,-0.54,1.05,-0.12,-41.54,-35.11,120.22,0
21750,-0.58,1.13,-0.20,-56.84,-30.49,123.12,0
21760,-0.61,1.20,-0.32,-54.63,-24.87,127.59,0
21770,-0.56,1.26,-0.21,-40.28,-15.08,133.08,0
21780,-0.56,1.29,-0.10,-32.73,-5.34,133.21,0
21790,-0.58,1.31,-0.07,-33.40,0.08,129.03,0
21800,-0.58,1.31,-0.06,-31.82,1.76,126.09,0
21810,-0.60,1.29,-0.02,-26.49,-3.05,127.24,0
21820,-0.67,1.39,-0.08,-22.69,-12.50,131.98,0
21830,-1.07,1.73,-0.22,-15.96,-21.11,133.73,0
21840,-1.12,1.86,0.32,-12.54,-16.81,126.13,0
21850,-1.11,1.71,0.42,-27.76,-31.63,129.30,0
21860,-1.56,1.74,0.44,-37.23,-67.53,140.40,0
21870,-1.95,1.76,0.33,-31.87,-94.38,145.15,0
21880,-2.00,1.42,0.29,-5.95,-86.07,146.11,0
21890,-1.99,0.69,-0.02,39.22,-46.05,153.62,0
21900,-1.66,0.03,-0.14,95.83,-42.06,196.82,0
21910,-1.18,0.12,-0.51,142.42,-45.92,250.13,0
21920,-1.89,0.37,-0.35,160.91,-81.34,250.13,0
21930,-1.94,0.51,0.49,120.44,-123.36,244.18,0
21940,-1.10,0.64,0.37,54.05,5.90,198.48,0
21950,-1.28,0.47,0.04,3.13,32.21,146.21,0
21960,-1.38,0.34,0.02,-13.22,-22.24,79.45,0
21970,-0.78,0.26,-0.04,5.41,17.40,11.94,0
21980,-0.73,0.32,-0.08,33.95,16.21,-35.54,0
21990,-0.72,0.38,-0.02,57.47,-14.34,-85.42,0
22000,-0.61,0.35,0.03,71.22,-15.02,-133.45,0
22010,-0.51,0.30,0.06,75.83,-16.92,-168.69,0
22020,-0.48,0.26,0.07,75.83,-22.31,-190.03,0
22030,-0.49,0.18,0.05,75.03,-25.41,-203.16,0
22040,-0.48,0.15,0.06,69.82,-35.73,-212.55,0
22050,-0.57,0.21,0.08,56.11,-41.30,-219.72,0
22060,-0.61,0.36,0.11,34.50,-41.50,-228.45,0
22070,-0.64,0.51,0.09,9.86,-36.58,-239.23,0
22080,-0.64,0.59,0.06,-10.53,-31.44,-249.92,0
22090,-0.59,0.71,0.04,-24.02,-28.54,-250.14,0
22100,-0.57,0.89,0.02,-29.64,-32.56,-249.98,0
22110,-0.60,1.06,0.01,-27.43,-40.34,-250.11,0
22120,-0.63,1.15,-0.01,-20.39,-44.90,-250.14,0
22130,-0.64,1.15,-0.01,-12.50,-48.04,-250.14,0
22140,-0.68,1.17,-0.02,-8.69,-55.22,-250.14,0
22150,-0.70,1.31,0.02,-9.21,-62.18,-250.14,0
22160,-0.84,1.43,-0.01,-18.58,-61.44,-250.14,0
22170,-0.87,1.43,-0.06,-27.03,-57.82,-250.14,0
22180,-0.94,1.43,-0.08,-31.69,-51.82,-250.14,0
22190,-1.01,1.51,-0.07,-41.82,-44.95,-250.14,0
22200,-1.05,1.59,-0.10,-57.73,-35.52,-250.14,0
22210,-1.10,1.70,-0.14,-73.19,-23.33,-250.14,0
22220,-1.14,1.91,-0.14,-84.50,-11.21,-250.14,0
22230,-1.14,2.00,-0.13,-94.27,-1.24,-250.14,0
22240,-0.85,2.00,-0.20,-101.49,19.34,-250.14,0
22250,-0.18,2.00,-0.51,-99.42,34.35,-249.05,0
22260,0.10,2.00,-0.35,-87.57,12.98,-220.15,0
22270,0.30,2.00,-0.09,-74.27,31.77,-165.69,0
22280,0.84,2.00,0.01,-60.50,48.22,-113.07,0
22290,1.45,2.00,0.10,-56.52,9.70,-66.31,0
22300,1.73,2.00,0.08,-66.18,-29.63,-34.15,0
22310,1.54,2.00,-0.04,-74.03,-27.21,-9.24,0
22320,1.20,2.00,-0.09,-69.93,-16.14,25.02,0
22330,0.97,2.00,-0.05,-61.95,-3.28,61.01,0
22340,0.82,2.00,0.03,-61.79,6.76,87.86,0
22350,0.60,1.89,0.06,-66.72,7.15,107.96,0
22360,-0.43,1.75,-0.53,-63.15,14.71,119.40,0
22370,-2.00,1.87,-1.90,-5.31,158.50,85.15,0
22380,-2.00,-0.02,0.76,86.10,250.13,-39.89,0
22390,0.24,-2.00,-1.16,-8.70,52.35,-157.56,0
22400,1.97,1.10,-1.71,-8.24,-39.74,70.96,0
22410,-1.77,2.00,0.32,-2.97,70.83,250.13,0
22420,-1.43,0.62,0.37,-104.33,21.70,250.13,0
22430,0.26,-1.11,-0.88,-164.70,23.68,236.34,0
22440,-0.25,0.33,-0.87,-126.53,42.64,244.50,0
22450,-1.56,2.00,0.71,-69.29,-30.73,213.52,0
22460,-0.84,1.66,0.70,-57.53,-12.35,119.52,0
22470,-0.25,0.39,-0.54,-25.62,53.68,54.26,0
22480,-0.68,0.80,-0.20,26.39,-4.50,35.19,0
22490,-0.66,0.94,0.04,38.13,-31.66,33.69,0
22500,-0.59,0.77,-0.04,19.40,-14.55,38.73,0
22510,-0.60,0.81,-0.09,0.53,3.30,40.50,0
22520,-0.62,0.77,-0.08,-3.00,11.06,36.66,0
22530,-0.60,0.81,-0.11,10.23,7.00,26.85,0
22540,-0.56,0.77,-0.21,27.44,-5.57,17.87,0
22550,-0.61,0.75,-0.17,32.75,-23.53,16.02,0
22560,-0.60,0.78,-0.10,21.37,-28.24,15.98,0
22570,-0.60,0.78,-0.12,2.62,-20.38,15.34,0
22580,-0.64,0.80,-0.07,-8.15,-16.90,12.57,0
22590,-0.65,0.79,-0.04,-7.67,-14.37,7.76,0
22600,-0.64,0.78,-0.07,-0.71,-13.39,3.93,0
22610,-0.64,0.79,-0.03,3.09,-14.49,3.79,0
22620,-0.63,0.79,-0.02,0.24,-8.76,6.22,0
22630,-0.62,0.80,-0.03,-3.11,-2.18,9.31,0
22640,-0.63,0.79,-0.04,-2.90,2.62,12.74,0
22650,-0.61,0.81,-0.04,0.13,3.80,16.39,0
22660,-0.61,0.80,-0.07,3.06,4.19,20.52,0
22670,-0.60,0.81,-0.09,6.52,1.54,21.79,0
22680,-0.55,0.80,-0.11,9.66,-2.00,19.02,0
22690,-0.58,0.78,-0.12,8.96,-4.38,17.06,0
22700,-0.57,0.79,-0.11,4.27,-5.71,18.28,0
22710,-0.59,0.81,-0.08,-0.56,-6.32,22.79,0
22720,-0.55,0.81,-0.09,-2.73,-7.11,28.38,0
22730,-0.59,0.81,-0.11,-2.02,-11.06,34.11,0
22740,-0.55,0.81,-0.07,-2.63,-14.18,37.21,0
22750,-0.61,0.83,-0.03,-6.78,-10.89,40.11,0
22760,-0.55,0.84,-0.01,-11.04,-5.18,44.00,0
22770,-0.58,0.86,-0.00,-11.95,-2.71,51.81,0
22780,-0.53,0.89,0.00,-10.62,-3.31,58.78,0
22790,-0.51,0.89,-0.02,-8.61,-5.57,63.33,0
22800,-0.43,0.88,-0.06,-6.02,-11.10,63.88,0
22810,-0.51,0.83,-0.13,-4.26,-17.34,67.41,0
22820,-0.56,0.84,-0.05,-7.98,-25.31,76.10,0
22830,-0.44,0.93,-0.05,-15.96,-26.43,91.01,0
22840,-0.54,0.88,-0.13,-22.76,-31.74,108.75,0
22850,-0.55,0.92,-0.08,-29.90,-34.73,120.28,0
22860,-0.48,0.98,-0.09,-40.17,-30.72,123.41,0
22870,-0.51,1.02,-0.19,-46.51,-35.98,123.52,0
22880,-0.52,1.07,-0.20,-46.08,-40.73,128.82,0
22890,-0.49,1.13,-0.17,-45.18,-27.22,133.81,0
22900,-0.52,1.18,-0.14,-48.46,-25.15,133.14,0
22910,-0.51,1.25,-0.07,-52.18,-26.77,131.74,0
22920,-0.52,1.33,0.00,-54.21,-24.98,132.53,0
22930,-0.57,1.42,-0.02,-51.31,-23.12,132.76,0
22940,-0.79,1.58,-0.23,-39.69,-23.40,129.72,0
22950,-0.94,1.74,0.13,-24.98,-19.82,119.37,0
22960,-0.86,1.66,0.29,-30.25,-31.19,113.56,0
22970,-1.13,1.71,0.39,-40.43,-68.42,116.52,0
22980,-1.53,1.90,0.43,-45.16,-95.64,115.79,0
22990,-1.77,1.88,0.36,-37.31,-122.27,113.12,0
23000,-2.00,1.55,0.17,-10.76,-140.19,116.40,0
23010,-2.00,0.92,-0.06,39.53,-116.00,119.66,0
23020,-1.71,0.13,-0.12,103.98,-93.85,145.21,0
23030,-0.87,-0.14,-0.25,153.86,-97.28,221.86,0
23040,-1.72,0.51,-0.45,173.02,-135.15,250.13,0
23050,-2.00,0.79,0.12,161.76,-136.53,244.39,0
23060,-1.11,0.17,0.32,115.23,-35.31,195.05,0
23070,-1.40,-0.10,0.15,56.70,-0.53,153.75,0
23080,-1.50,0.15,0.21,7.67,-19.62,89.27,0
23090,-0.93,0.40,0.09,-17.72,25.53,21.15,0
23100,-0.82,0.44,-0.04,-14.55,16.45,-23.17,0
23110,-0.67,0.38,-0.12,12.18,-20.58,-62.69,0
23120,-0.57,0.37,-0.14,54.08,-32.89,-100.68,0
23130,-0.53,0.37,-0.10,95.01,-45.89,-138.81,0
23140,-0.50,0.38,-0.03,120.20,-70.83,-175.18,0
23150,-0.55,0.37,0.01,129.15,-83.96,-207.01,0
23160,-0.57,0.31,-0.01,127.21,-84.58,-233.55,0
23170,-0.58,0.23,-0.03,116.98,-83.10,-249.30,0
23180,-0.62,0.23,-0.02,96.69,-81.92,-250.14,0
23190,-0.67,0.37,-0.01,65.27,-79.45,-249.96,0
23200,-0.72,0.57,-0.01,26.38,-69.31,-250.09,0
23210,-0.68,0.71,-0.07,-10.66,-59.18,-250.14,0
23220,-0.66,0.85,-0.16,-33.66,-55.32,-250.14,0
23230,-0.71,1.03,-0.22,-39.28,-53.19,-250.14,0
23240,-0.78,1.15,-0.25,-33.68,-50.42,-250.14,0
23250,-0.80,1.16,-0.26,-24.75,-45.63,-250.14,0
23260,-0.87,1.11,-0.27,-18.46,-42.13,-250.14,0
23270,-0.85,1.14,-0.25,-16.40,-40.16,-250.14,0
23280,-1.02,1.22,-0.24,-23.15,-36.72,-250.14,0
23290,-1.11,1.30,-0.29,-32.76,-27.37,-250.14,0
23300,-1.17,1.40,-0.33,-37.15,-12.79,-250.14,0
23310,-1.27,1.52,-0.32,-41.92,-2.42,-250.14,0
23320,-1.33,1.68,-0.28,-52.38,10.44,-250.14,0
23330,-1.37,1.87,-0.23,-67.29,27.99,-250.14,0
23340,-1.29,2.00,-0.19,-79.61,52.67,-250.14,0
23350,-0.78,2.00,-0.30,-83.41,75.61,-250.14,0
23360,-0.35,2.00,-0.21,-78.41,64.12,-250.14,0
23370,0.03,2.00,0.05,-71.44,55.01,-237.78,0
23380,0.60,2.00,0.21,-62.70,56.14,-175.81,0
23390,1.15,2.00,0.23,-54.54,17.89,-101.02,0
23400,1.57,2.00,0.12,-50.24,-39.74,-44.24,0
23410,1.84,2.00,-0.06,-50.79,-66.28,-20.44,0
23420,1.79,2.00,-0.12,-49.65,-32.53,-11.84,0
23430,1.51,2.00,-0.08,-44.27,12.21,4.11,0
23440,1.26,2.00,0.08,-44.22,20.62,40.21,0
23450,0.96,2.00,0.16,-51.05,20.18,85.16,0
23460,0.64,2.00,0.18,-55.28,18.60,118.63,0
23470,-0.46,1.96,-0.45,-48.15,24.68,133.47,0
23480,-2.00,1.72,-1.87,9.75,147.03,96.11,0
23490,-2.00,-0.44,0.90,85.86,236.71,-56.47,0
23500,0.29,-2.00,-1.12,8.48,42.17,-209.19,0
23510,2.00,0.64,-1.72,43.60,-81.98,19.06,0
23520,-1.54,2.00,0.45,60.37,17.82,250.13,0
23530,-1.79,1.06,0.85,-63.18,21.24,246.11,0
23540,0.22,-1.18,-0.78,-182.21,39.84,193.90,0
23550,-0.02,-0.53,-1.16,-178.03,77.37,221.40,0
23560,-0.68,1.47,-0.55,-115.67,-20.11,243.69,0
23570,-1.49,2.00,0.85,-61.79,-76.14,214.50,0
23580,-0.50,1.27,0.21,-46.96,-22.39,121.15,0
23590,-0.43,0.44,-0.41,-4.80,12.05,49.87,0
23600,-0.65,0.94,-0.13,31.24,-31.85,14.99,0
23610,-0.75,0.88,0.10,30.68,-31.82,14.28,0
23620,-0.68,0.72,0.02,12.61,-12.02,23.77,0
23630,-0.61,0.80,-0.16,-0.39,2.71,28.62,0
23640,-0.62,0.77,-0.15,1.10,1.07,25.72,0
23650,-0.63,0.79,-0.13,9.53,-7.42,18.92,0
23660,-0.58,0.76,-0.19,15.40,-14.37,14.11,0
23670,-0.61,0.76,-0.13,15.27,-21.54,11.73,0
23680,-0.63,0.77,-0.11,4.66,-18.90,10.41,0
23690,-0.65,0.76,-0.12,-5.77,-15.53,10.81,0
23700,-0.64,0.78,-0.08,-7.85,-15.54,9.18,0
23710,-0.64,0.79,-0.06,-4.68,-15.56,4.94,0
23720,-0.65,0.78,-0.05,-1.44,-12.87,0.64,0
23730,-0.64,0.78,-0.04,-0.19,-9.33,-1.80,0
23740,-0.66,0.79,-0.02,-0.34,-4.47,-1.28,0
23750,-0.66,0.77,-0.04,0.34,1.11,1.59,0
23760,-0.65,0.77,-0.07,2.95,3.08,7.35,0
23770,-0.60,0.78,-0.07,4.33,3.56,13.83,0
23780,-0.63,0.78,-0.08,4.39,5.41,19.97,0
23790,-0.62,0.79,-0.11,5.82,5.60,20.95,0
23800,-0.59,0.78,-0.14,8.73,2.16,18.35,0
23810,-0.59,0.78,-0.14,8.89,-1.77,16.66,0
23820,-0.59,0.78,-0.13,4.23,-3.98,17.33,0
23830,-0.60,0.78,-0.11,-1.21,-4.50,19.51,0
23840,-0.59,0.80,-0.10,-3.36,-4.45,20.83,0
23850,-0.58,0.80,-0.11,-1.98,-5.88,21.79,0
23860,-0.59,0.80,-0.09,-0.85,-7.15,23.37,0
23870,-0.59,0.81,-0.07,-1.27,-5.79,26.05,0
23880,-0.62,0.82,-0.07,-2.06,-4.11,29.45,0
23890,-0.56,0.82,-0.06,-2.28,-2.36,33.51,0
23900,-0.58,0.83,-0.07,-2.31,-0.30,39.94,0
23910,-0.57,0.85,-0.07,-1.80,0.50,43.45,0
23920,-0.53,0.84,-0.08,-1.35,-0.03,45.21,0
23930,-0.56,0.86,-0.08,-1.39,-1.63,45.82,0
23940,-0.54,0.84,-0.09,-1.41,-3.12,45.22,0
23950,-0.54,0.84,-0.12,-1.68,-5.12,46.24,0
23960,-0.55,0.85,-0.07,-4.50,-7.88,53.15,0
23970,-0.59,0.91,-0.04,-11.60,-4.97,61.50,0
23980,-0.50,0.90,-0.09,-17.02,-4.78,66.39,0
23990,-0.49,0.85,-0.17,-16.92,-11.39,74.42,0
24000,-0.55,0.89,-0.15,-17.95,-18.77,84.63,0
24010,-0.55,0.96,-0.11,-26.74,-21.98,91.47,0
24020,-0.56,1.03,-0.13,-37.82,-23.22,95.31,0
24030,-0.57,1.10,-0.16,-43.44,-22.34,98.72,0
24040,-0.60,1.18,-0.14,-41.56,-14.25,102.73,0
24050,-0.59,1.18,-0.08,-37.44,-9.73,106.37,0
24060,-0.58,1.23,-0.06,-31.99,-9.39,108.49,0
24070,-0.58,1.27,-0.04,-23.19,-7.81,107.66,0
24080,-0.68,1.30,-0.17,-13.21,-9.37,106.54,0
24090,-0.92,1.41,-0.23,-1.40,-5.05,105.06,0
24100,-0.76,1.38,0.13,-2.11,4.34,104.94,0
24110,-0.74,1.29,0.11,-18.65,-5.28,119.44,0
24120,-0.99,1.46,0.16,-25.25,-21.25,137.18,0
24130,-1.16,1.66,0.25,-21.77,-44.80,150.98,0
24140,-1.30,1.63,0.33,-14.37,-76.82,165.36,0
24150,-1.48,1.51,0.35,-4.04,-113.21,182.39,0
24160,-1.81,1.41,0.31,12.42,-147.63,199.82,0
24170,-1.88,1.36,0.29,38.90,-142.83,215.60,0
24180,-1.60,1.05,0.07,74.79,-103.57,242.57,0
24190,-1.31,0.43,-0.04,111.70,-84.75,250.13,0
24200,-1.36,0.28,-0.35,130.39,-77.95,250.02,0
24210,-1.57,0.29,-0.24,121.76,-99.40,249.92,0
24220,-1.61,0.46,0.25,75.59,-153.54,245.19,0
24230,-1.21,0.71,0.22,24.97,-43.34,173.55,0
24240,-0.86,0.46,0.06,-17.50,8.30,67.97,0
24250,-0.99,0.25,-0.00,-38.19,-27.63,-16.31,0
24260,-0.71,0.25,-0.08,-21.31,5.22,-76.11,0
24270,-0.55,0.25,-0.08,6.73,-1.57,-100.83,0
24280,-0.54,0.26,-0.00,20.40,-23.88,-113.67,0
24290,-0.47,0.26,-0.01,19.40,-28.27,-125.06,0
24300,-0.46,0.26,-0.08,22.33,-33.56,-134.36,0
24310,-0.46,0.23,-0.12,34.95,-40.55,-147.44,0
24320,-0.47,0.21,-0.12,48.80,-48.68,-163.20,0
24330,-0.49,0.23,-0.08,52.78,-57.16,-180.34,0
24340,-0.53,0.30,-0.08,43.55,-61.15,-197.98,0
24350,-0.57,0.40,-0.11,28.37,-61.45,-214.70,0
24360,-0.63,0.47,-0.16,13.27,-58.22,-230.32,0
24370,-0.61,0.53,-0.17,-0.48,-56.63,-245.40,0
24380,-0.58,0.69,-0.19,-13.39,-58.19,-250.14,0
24390,-0.59,0.85,-0.23,-20.31,-59.80,-250.14,0
24400,-0.62,0.96,-0.27,-17.73,-62.30,-250.02,0
24410,-0.65,1.01,-0.28,-10.43,-64.25,-250.14,0
24420,-0.68,1.04,-0.28,-5.99,-64.15,-250.14,0
24430,-0.69,1.12,-0.29,-7.57,-66.16,-250.14,0
24440,-0.78,1.24,-0.31,-11.60,-70.09,-250.14,0
24450,-0.83,1.35,-0.34,-12.73,-66.85,-250.14,0
24460,-0.95,1.36,-0.36,-16.50,-62.78,-250.14,0
24470,-0.96,1.38,-0.38,-22.09,-55.32,-250.14,0
24480,-0.99,1.45,-0.40,-27.65,-46.66,-250.14,0
24490,-1.00,1.52,-0.47,-32.12,-41.17,-250.14,0
24500,-0.98,1.63,-0.60,-32.20,-35.46,-250.14,0
24510,-0.73,1.75,-0.95,-22.94,-34.72,-250.14,0
24520,-0.69,1.91,-1.13,-1.25,-63.31,-247.63,0
24530,-0.84,2.00,-1.20,28.42,-71.55,-229.77,0
24540,-0.69,2.00,-1.16,59.49,-60.65,-217.81,0
24550,-0.25,2.00,-0.79,79.01,-62.82,-214.42,0
24560,0.20,1.99,-0.45,83.02,-64.62,-203.55,0
24570,0.56,1.96,-0.36,83.64,-89.95,-174.21,0
24580,0.69,2.00,-0.42,92.28,-123.84,-129.76,0
24590,0.76,2.00,-0.46,104.09,-138.71,-89.50,0
24600,0.95,2.00,-0.42,107.92,-132.48,-59.40,0
24610,1.10,2.00,-0.42,105.59,-114.63,-31.30,0
24620,1.08,2.00,-0.32,106.27,-103.92,-1.27,0
24630,0.96,1.99,-0.17,108.11,-96.62,29.53,0
24640,0.79,1.90,-0.01,104.90,-92.40,61.08,0
24650,0.57,1.78,0.11,97.21,-86.01,88.96,0
24660,0.37,1.70,0.19,88.53,-79.95,109.15,0
24670,-0.15,1.60,-0.04,81.70,-72.23,122.18,0
24680,-1.57,1.40,-0.80,93.62,-13.54,110.59,0
24690,-2.00,0.03,1.10,127.29,98.82,2.56,0
24700,-1.39,-2.00,-0.31,59.63,115.27,-218.10,0
24710,1.93,-1.62,-1.22,97.34,-36.06,-183.26,0
24720,1.54,1.68,-0.63,131.31,-135.83,117.95,0
24730,-2.00,2.00,1.32,90.51,74.46,250.13,0
24740,-1.56,0.70,1.17,-75.14,80.18,177.94,0
24750,0.40,-1.02,-0.61,-197.88,128.65,117.46,0
24760,-0.27,0.01,-0.87,-188.93,178.66,155.50,0
24770,-1.01,1.61,-0.40,-120.04,81.68,172.44,0
24780,-0.65,1.29,0.12,-44.21,-17.85,150.89,0
24790,-0.54,0.72,0.14,10.63,-16.53,103.63,0
24800,-0.57,0.87,-0.01,30.24,-2.77,29.66,0
24810,-0.64,0.77,-0.07,25.50,20.79,-10.28,0
24820,-0.74,0.67,-0.01,23.68,20.21,-2.66,0
24830,-0.73,0.75,-0.00,26.47,7.85,13.46,0
24840,-0.64,0.69,-0.06,24.56,1.85,22.28,0
24850,-0.65,0.73,-0.08,19.31,3.96,22.03,0
24860,-0.66,0.75,-0.08,13.47,3.46,16.82,0
24870,-0.65,0.73,-0.12,14.11,0.02,12.45,0
24880,-0.64,0.72,-0.13,16.79,-9.70,9.16,0
24890,-0.65,0.73,-0.09,14.85,-18.08,7.65,0
24900,-0.67,0.73,-0.05,8.50,-20.41,7.11,0
24910,-0.68,0.73,-0.02,1.76,-18.78,6.81,0
24920,-0.69,0.74,0.01,-2.49,-14.70,6.53,0
24930,-0.69,0.75,0.03,-3.28,-11.01,6.85,0
24940,-0.68,0.77,0.02,-0.11,-7.52,8.13,0
24950,-0.67,0.76,0.01,5.46,-5.16,8.73,0
24960,-0.67,0.75,0.00,10.40,-2.73,7.64,0
24970,-0.67,0.76,-0.01,12.95,0.03,5.39,0
24980,-0.66,0.75,-0.04,15.89,1.94,2.13,0
24990,-0.65,0.75,-0.07,18.61,1.07,-0.14,0
25000,-0.64,0.74,-0.08,18.40,-1.94,-0.21,0
25010,-0.63,0.73,-0.09,15.14,-4.74,1.02,0
25020,-0.63,0.74,-0.09,11.95,-7.68,2.41,0
25030,-0.63,0.74,-0.08,10.21,-11.42,3.37,0
25040,-0.66,0.74,-0.06,9.08,-13.95,3.82,0
25050,-0.65,0.74,-0.05,8.74,-15.34,4.26,0
25060,-0.64,0.76,-0.04,9.52,-16.40,5.81,0
25070,-0.65,0.76,-0.03,10.34,-16.99,7.07,0
25080,-0.64,0.76,-0.03,10.58,-16.18,6.19,0
25090,-0.64,0.78,-0.04,10.63,-14.34,4.37,0
25100,-0.63,0.76,-0.05,11.03,-13.79,2.55,0
25110,-0.66,0.75,-0.04,12.08,-13.31,0.25,0
25120,-0.66,0.76,-0.01,12.44,-11.48,-2.23,0
25130,-0.68,0.74,0.01,12.68,-7.40,-2.86,0
25140,-0.67,0.74,-0.00,14.05,-1.73,-1.81,0
25150,-0.65,0.76,-0.04,17.37,1.32,1.76,0
25160,-0.64,0.75,-0.06,20.15,0.36,6.50,0
25170,-0.63,0.76,-0.07,19.08,-0.27,9.21,0
25180,-0.62,0.76,-0.09,15.89,-1.07,9.95,0
25190,-0.62,0.76,-0.09,13.20,-3.47,9.11,0
25200,-0.63,0.77,-0.08,11.30,-5.47,7.21,0
25210,-0.62,0.77,-0.07,10.21,-6.76,5.30,0
25220,-0.64,0.77,-0.03,9.57,-6.57,4.15,0
25230,-0.65,0.76,-0.01,9.20,-2.59,3.06,0
25240,-0.64,0.79,-0.03,9.91,1.92,4.15,0
25250,-0.64,0.77,-0.05,13.18,3.89,7.25,0
25260,-0.63,0.77,-0.05,16.12,4.83,9.76,0
25270,-0.62,0.78,-0.07,16.35,6.23,11.17,0
25280,-0.61,0.78,-0.09,14.92,6.44,12.45,0
25290,-0.61,0.78,-0.08,12.22,5.22,13.27,0
25300,-0.63,0.78,-0.07,9.11,5.73,13.43,0
25310,-0.65,0.78,-0.05,7.44,7.38,12.94,0
25320,-0.64,0.79,0.00,7.38,8.26,13.82,0
25330,-0.65,0.83,0.09,8.06,13.92,18.73,0
25340,-0.67,0.92,0.11,11.94,22.00,25.46,0
25350,-0.65,0.91,0.13,22.41,16.27,31.96,0
25360,-0.65,0.92,0.18,36.16,-4.92,37.82,0
25370,-0.60,0.92,0.41,49.65,-38.28,42.53,0
25380,-0.67,0.84,0.69,54.40,-108.88,44.22,0
25390,-0.61,0.87,0.79,57.79,-168.44,38.73,0
25400,-0.51,1.05,0.80,67.75,-216.76,36.70,0
25410,-0.73,1.28,0.63,86.65,-250.14,39.72,0
25420,-0.92,1.32,0.55,126.08,-250.14,33.74,0
25430,-0.82,0.93,0.31,180.15,-249.42,23.54,0
25440,-0.75,0.64,0.14,239.48,-250.14,17.14,0
25450,-0.82,0.66,-0.08,250.13,-250.14,11.11,0
25460,-0.80,0.58,-0.20,249.73,-250.12,3.38,0
25470,-0.62,0.48,-0.15,249.79,-250.14,1.77,0
25480,-0.64,0.66,-0.22,240.33,-250.14,13.12,0
25490,-0.80,0.91,-0.38,181.79,-250.14,27.81,0
25500,-0.78,0.87,-0.55,133.69,-249.63,34.23,0
25510,-0.63,0.83,-0.69,126.01,-231.78,30.53,0
25520,-0.51,0.82,-0.71,136.75,-215.77,24.06,0
25530,-0.58,0.86,-0.69,146.74,-211.18,18.40,0
25540,-0.63,0.87,-0.69,150.29,-195.71,6.95,0
25550,-0.61,0.71,-0.71,153.40,-184.40,-2.40,0
25560,-0.63,0.60,-0.72,158.96,-173.48,-5.21,0
25570,-0.66,0.59,-0.69,164.10,-158.66,-5.05,0
25580,-0.65,0.54,-0.65,165.79,-147.16,-3.60,0
25590,-0.65,0.49,-0.59,163.48,-138.75,-1.95,0
25600,-0.68,0.49,-0.57,158.31,-133.32,-3.08,0
25610,-0.72,0.46,-0.58,154.08,-130.60,-9.81,0
25620,-0.72,0.42,-0.59,152.05,-123.60,-21.47,0
25630,-0.72,0.41,-0.56,150.45,-114.58,-34.37,0
25640,-0.74,0.43,-0.51,146.88,-105.80,-46.02,0
25650,-0.74,0.46,-0.47,141.91,-99.65,-55.47,0
25660,-0.74,0.47,-0.44,138.40,-94.92,-62.20,0
25670,-0.75,0.46,-0.42,137.59,-89.62,-66.18,0
25680,-0.75,0.47,-0.40,138.75,-84.62,-68.17,0
25690,-0.74,0.50,-0.37,140.29,-79.78,-68.11,0
25700,-0.73,0.54,-0.37,141.44,-75.91,-66.33,0
25710,-0.73,0.54,-0.37,141.37,-76.05,-63.27,0
25720,-0.71,0.57,-0.38,138.47,-81.81,-62.19,0
25730,-0.75,0.61,-0.38,132.16,-82.76,-67.38,0
25740,-0.77,0.68,-0.37,124.71,-78.56,-75.18,0
25750,-0.72,0.72,-0.39,118.07,-78.49,-78.88,0
25760,-0.69,0.73,-0.40,113.15,-78.82,-78.52,0
25770,-0.67,0.77,-0.40,110.86,-81.00,-74.55,0
25780,-0.64,0.83,-0.42,111.60,-88.46,-68.25,0
25790,-0.62,0.86,-0.42,114.59,-93.30,-62.13,0
25800,-0.63,0.85,-0.42,118.19,-95.01,-59.16,0
25810,-0.65,0.85,-0.41,120.74,-94.29,-59.88,0
25820,-0.68,0.90,-0.38,120.24,-94.69,-67.08,0
25830,-0.71,0.92,-0.31,117.31,-94.14,-80.89,0
25840,-0.60,0.89,-0.24,115.07,-96.47,-94.27,0
25850,-0.47,0.81,-0.22,117.27,-104.53,-98.56,0
25860,-0.39,0.84,-0.22,123.49,-111.34,-91.79,0
25870,-0.39,0.95,-0.22,129.75,-113.17,-78.47,0
25880,-0.35,1.00,-0.22,131.79,-112.12,-61.40,0
25890,-0.27,0.98,-0.19,127.66,-109.82,-44.00,0
25900,-0.20,0.98,-0.14,121.36,-107.95,-32.13,0
25910,-0.19,1.01,-0.08,116.48,-108.21,-26.67,0
25920,-0.16,1.02,-0.01,114.18,-110.13,-20.65,0
25930,-0.16,1.01,0.04,114.02,-113.49,-10.56,0
25940,-0.19,1.03,0.10,114.52,-114.70,1.21,0
25950,-0.20,1.03,0.15,114.55,-116.48,13.23,0
25960,-0.17,1.00,0.17,115.51,-120.18,26.05,0
25970,-0.17,0.98,0.18,116.15,-123.21,38.44,0
25980,-0.20,0.97,0.24,112.04,-126.88,49.73,0
25990,-0.23,0.90,0.32,100.90,-129.93,59.21,0
26000,-0.30,0.88,0.41,86.32,-122.75,65.34,0
26010,-0.36,0.93,0.44,73.08,-115.11,69.99,0
26020,-0.37,0.92,0.43,65.79,-100.08,73.51,0
26030,-0.88,0.84,0.05,90.34,-17.17,47.86,0
26040,-1.94,0.58,-1.44,157.89,97.21,-62.83,0
26050,-2.00,-0.74,0.35,94.02,-24.82,-217.82,0
26060,-1.25,-2.00,-0.15,43.34,-156.45,-142.05,0
26070,2.00,-0.86,-1.09,43.16,9.31,145.67,0
26080,0.44,2.00,-0.38,-26.05,67.33,250.13,0
26090,-2.00,2.00,1.04,-153.91,55.01,204.68,0
26100,-0.79,0.16,0.23,-225.82,53.91,205.02,0
26110,-0.10,-1.24,-0.88,-212.30,56.31,201.35,0
26120,-0.40,-0.59,-0.91,-160.93,-0.28,172.18,0
26130,-0.21,1.11,-0.58,-98.08,-30.64,145.63,0
26140,-0.64,2.00,-0.10,-42.03,-47.28,98.34,0
26150,-0.67,1.47,0.01,0.09,-53.82,47.62,0
26160,-0.70,0.61,0.06,14.51,-37.57,13.94,0
26170,-0.67,0.85,0.05,6.18,-19.86,1.24,0
26180,-0.67,0.97,-0.04,-4.24,-25.30,1.96,0
26190,-0.63,0.76,-0.07,-3.79,-29.62,8.10,0
26200,-0.68,0.77,-0.03,-1.09,-29.94,11.01,0
26210,-0.66,0.84,-0.05,-2.75,-29.19,8.15,0
26220,-0.61,0.78,-0.11,-9.43,-30.53,2.18,0
26230,-0.62,0.76,-0.07,-17.69,-27.60,-3.58,0
26240,-0.65,0.80,-0.03,-23.08,-24.89,-7.09,0
26250,-0.64,0.78,-0.06,-24.51,-26.50,-6.81,0
26260,-0.65,0.74,-0.06,-24.26,-27.55,-4.37,0
26270,-0.66,0.76,-0.01,-23.64,-24.42,-0.83,0
26280,-0.65,0.78,-0.00,-21.82,-21.76,2.84,0
26290,-0.63,0.79,-0.02,-21.05,-21.16,4.38,0
26300,-0.63,0.80,0.01,-21.86,-17.24,1.61,0
26310,-0.63,0.81,0.02,-22.13,-12.07,-3.98,0
26320,-0.63,0.81,0.03,-19.47,-6.01,-10.80,0
26330,-0.64,0.81,0.03,-13.37,-3.98,-16.05,0
26340,-0.63,0.83,0.00,-8.16,-4.17,-19.36,0
26350,-0.63,0.83,0.04,-6.05,0.44,-21.99,0
26360,-0.64,0.85,0.03,-1.47,1.86,-22.89,0
26370,-0.62,0.86,-0.03,8.39,-4.71,-22.04,0
26380,-0.61,0.81,-0.08,20.35,-15.79,-19.56,0
26390,-0.53,0.83,-0.16,34.92,-34.11,-11.47,0
26400,-0.43,0.96,-0.29,57.41,-62.63,0.73,0
26410,-0.44,1.09,-0.35,87.59,-98.70,13.11,0
26420,-0.42,0.92,-0.31,118.28,-127.18,21.17,0
26430,-0.55,0.77,-0.15,136.88,-141.63,17.70,0
26440,-0.57,0.82,-0.01,139.58,-139.29,8.82,0
26450,-0.57,0.70,0.03,126.53,-131.55,-1.85,0
26460,-0.63,0.64,0.08,103.72,-117.95,-8.03,0
26470,-0.66,0.63,0.15,82.87,-107.51,-3.55,0
26480,-0.73,0.48,0.20,71.31,-98.88,10.68,0
26490,-0.88,0.33,0.27,60.12,-83.33,28.96,0
26500,-0.89,0.47,0.42,39.08,-47.05,49.53,0
26510,-0.73,0.74,0.27,18.72,-24.93,64.43,0
26520,-0.60,0.92,0.02,8.25,-24.50,64.21,0
26530,-0.61,0.82,-0.01,6.19,-21.31,52.41,0
26540,-0.59,0.85,0.08,10.78,-8.03,38.82,0
26550,-0.59,0.86,0.02,19.47,-6.61,29.80,0
26560,-0.58,0.83,-0.01,24.48,-11.46,30.60,0
26570,-0.60,0.81,0.02,23.28,-11.31,38.57,0
26580,-0.59,0.81,0.01,18.83,-11.92,46.91,0
26590,-0.57,0.87,0.03,14.67,-6.41,50.27,0
26600,-0.55,0.87,0.01,12.82,-5.26,49.05,0
26610,-0.52,0.88,0.00,13.86,-7.46,44.85,0
26620,-0.52,0.90,0.02,15.50,-8.77,40.76,0
26630,-0.44,0.86,0.00,15.44,-11.27,45.72,0
26640,-0.50,0.86,-0.03,11.66,-16.60,50.41,0
